SprungID,Sprungtyp,Acc_x_Fil_1,Acc_y_Fil_1,Acc_z_Fil_1,Gyro_x_Fil_1,Gyro_y_Fil_1,Gyro_z_Fil_1,Acc_x_Fil_2,Acc_y_Fil_2,Acc_z_Fil_2,Gyro_x_Fil_2,Gyro_y_Fil_2,Gyro_z_Fil_2,Acc_x_Fil_3,Acc_y_Fil_3,Acc_z_Fil_3,Gyro_x_Fil_3,Gyro_y_Fil_3,Gyro_z_Fil_3,Acc_x_Fil_4,Acc_y_Fil_4,Acc_z_Fil_4,Gyro_x_Fil_4,Gyro_y_Fil_4,Gyro_z_Fil_4,Acc_x_Fil_5,Acc_y_Fil_5,Acc_z_Fil_5,Gyro_x_Fil_5,Gyro_y_Fil_5,Gyro_z_Fil_5,Acc_x_Fil_6,Acc_y_Fil_6,Acc_z_Fil_6,Gyro_x_Fil_6,Gyro_y_Fil_6,Gyro_z_Fil_6,Acc_x_Fil_7,Acc_y_Fil_7,Acc_z_Fil_7,Gyro_x_Fil_7,Gyro_y_Fil_7,Gyro_z_Fil_7,Acc_x_Fil_8,Acc_y_Fil_8,Acc_z_Fil_8,Gyro_x_Fil_8,Gyro_y_Fil_8,Gyro_z_Fil_8,Acc_x_Fil_9,Acc_y_Fil_9,Acc_z_Fil_9,Gyro_x_Fil_9,Gyro_y_Fil_9,Gyro_z_Fil_9,Acc_x_Fil_10,Acc_y_Fil_10,Acc_z_Fil_10,Gyro_x_Fil_10,Gyro_y_Fil_10,Gyro_z_Fil_10,Acc_x_Fil_11,Acc_y_Fil_11,Acc_z_Fil_11,Gyro_x_Fil_11,Gyro_y_Fil_11,Gyro_z_Fil_11,Acc_x_Fil_12,Acc_y_Fil_12,Acc_z_Fil_12,Gyro_x_Fil_12,Gyro_y_Fil_12,Gyro_z_Fil_12,Acc_x_Fil_13,Acc_y_Fil_13,Acc_z_Fil_13,Gyro_x_Fil_13,Gyro_y_Fil_13,Gyro_z_Fil_13,Acc_x_Fil_14,Acc_y_Fil_14,Acc_z_Fil_14,Gyro_x_Fil_14,Gyro_y_Fil_14,Gyro_z_Fil_14,Acc_x_Fil_15,Acc_y_Fil_15,Acc_z_Fil_15,Gyro_x_Fil_15,Gyro_y_Fil_15,Gyro_z_Fil_15,Acc_x_Fil_16,Acc_y_Fil_16,Acc_z_Fil_16,Gyro_x_Fil_16,Gyro_y_Fil_16,Gyro_z_Fil_16,Acc_x_Fil_17,Acc_y_Fil_17,Acc_z_Fil_17,Gyro_x_Fil_17,Gyro_y_Fil_17,Gyro_z_Fil_17,Acc_x_Fil_18,Acc_y_Fil_18,Acc_z_Fil_18,Gyro_x_Fil_18,Gyro_y_Fil_18,Gyro_z_Fil_18,Acc_x_Fil_19,Acc_y_Fil_19,Acc_z_Fil_19,Gyro_x_Fil_19,Gyro_y_Fil_19,Gyro_z_Fil_19,Acc_x_Fil_20,Acc_y_Fil_20,Acc_z_Fil_20,Gyro_x_Fil_20,Gyro_y_Fil_20,Gyro_z_Fil_20,Acc_x_Fil_21,Acc_y_Fil_21,Acc_z_Fil_21,Gyro_x_Fil_21,Gyro_y_Fil_21,Gyro_z_Fil_21,Acc_x_Fil_22,Acc_y_Fil_22,Acc_z_Fil_22,Gyro_x_Fil_22,Gyro_y_Fil_22,Gyro_z_Fil_22,Acc_x_Fil_23,Acc_y_Fil_23,Acc_z_Fil_23,Gyro_x_Fil_23,Gyro_y_Fil_23,Gyro_z_Fil_23,Acc_x_Fil_24,Acc_y_Fil_24,Acc_z_Fil_24,Gyro_x_Fil_24,Gyro_y_Fil_24,Gyro_z_Fil_24,Acc_x_Fil_25,Acc_y_Fil_25,Acc_z_Fil_25,Gyro_x_Fil_25,Gyro_y_Fil_25,Gyro_z_Fil_25,Acc_x_Fil_26,Acc_y_Fil_26,Acc_z_Fil_26,Gyro_x_Fil_26,Gyro_y_Fil_26,Gyro_z_Fil_26,Acc_x_Fil_27,Acc_y_Fil_27,Acc_z_Fil_27,Gyro_x_Fil_27,Gyro_y_Fil_27,Gyro_z_Fil_27,Acc_x_Fil_28,Acc_y_Fil_28,Acc_z_Fil_28,Gyro_x_Fil_28,Gyro_y_Fil_28,Gyro_z_Fil_28,Acc_x_Fil_29,Acc_y_Fil_29,Acc_z_Fil_29,Gyro_x_Fil_29,Gyro_y_Fil_29,Gyro_z_Fil_29,Acc_x_Fil_30,Acc_y_Fil_30,Acc_z_Fil_30,Gyro_x_Fil_30,Gyro_y_Fil_30,Gyro_z_Fil_30,Acc_x_Fil_31,Acc_y_Fil_31,Acc_z_Fil_31,Gyro_x_Fil_31,Gyro_y_Fil_31,Gyro_z_Fil_31,Acc_x_Fil_32,Acc_y_Fil_32,Acc_z_Fil_32,Gyro_x_Fil_32,Gyro_y_Fil_32,Gyro_z_Fil_32,Acc_x_Fil_33,Acc_y_Fil_33,Acc_z_Fil_33,Gyro_x_Fil_33,Gyro_y_Fil_33,Gyro_z_Fil_33,Acc_x_Fil_34,Acc_y_Fil_34,Acc_z_Fil_34,Gyro_x_Fil_34,Gyro_y_Fil_34,Gyro_z_Fil_34,Acc_x_Fil_35,Acc_y_Fil_35,Acc_z_Fil_35,Gyro_x_Fil_35,Gyro_y_Fil_35,Gyro_z_Fil_35,Acc_x_Fil_36,Acc_y_Fil_36,Acc_z_Fil_36,Gyro_x_Fil_36,Gyro_y_Fil_36,Gyro_z_Fil_36,Acc_x_Fil_37,Acc_y_Fil_37,Acc_z_Fil_37,Gyro_x_Fil_37,Gyro_y_Fil_37,Gyro_z_Fil_37,Acc_x_Fil_38,Acc_y_Fil_38,Acc_z_Fil_38,Gyro_x_Fil_38,Gyro_y_Fil_38,Gyro_z_Fil_38,Acc_x_Fil_39,Acc_y_Fil_39,Acc_z_Fil_39,Gyro_x_Fil_39,Gyro_y_Fil_39,Gyro_z_Fil_39,Acc_x_Fil_40,Acc_y_Fil_40,Acc_z_Fil_40,Gyro_x_Fil_40,Gyro_y_Fil_40,Gyro_z_Fil_40,Acc_x_Fil_41,Acc_y_Fil_41,Acc_z_Fil_41,Gyro_x_Fil_41,Gyro_y_Fil_41,Gyro_z_Fil_41,Acc_x_Fil_42,Acc_y_Fil_42,Acc_z_Fil_42,Gyro_x_Fil_42,Gyro_y_Fil_42,Gyro_z_Fil_42,Acc_x_Fil_43,Acc_y_Fil_43,Acc_z_Fil_43,Gyro_x_Fil_43,Gyro_y_Fil_43,Gyro_z_Fil_43,Acc_x_Fil_44,Acc_y_Fil_44,Acc_z_Fil_44,Gyro_x_Fil_44,Gyro_y_Fil_44,Gyro_z_Fil_44,Acc_x_Fil_45,Acc_y_Fil_45,Acc_z_Fil_45,Gyro_x_Fil_45,Gyro_y_Fil_45,Gyro_z_Fil_45,Acc_x_Fil_46,Acc_y_Fil_46,Acc_z_Fil_46,Gyro_x_Fil_46,Gyro_y_Fil_46,Gyro_z_Fil_46,Acc_x_Fil_47,Acc_y_Fil_47,Acc_z_Fil_47,Gyro_x_Fil_47,Gyro_y_Fil_47,Gyro_z_Fil_47,Acc_x_Fil_48,Acc_y_Fil_48,Acc_z_Fil_48,Gyro_x_Fil_48,Gyro_y_Fil_48,Gyro_z_Fil_48,Acc_x_Fil_49,Acc_y_Fil_49,Acc_z_Fil_49,Gyro_x_Fil_49,Gyro_y_Fil_49,Gyro_z_Fil_49,Acc_x_Fil_50,Acc_y_Fil_50,Acc_z_Fil_50,Gyro_x_Fil_50,Gyro_y_Fil_50,Gyro_z_Fil_50
20191008-1207-FRANKFURT_2-01-364,Salto A,17.535,29.894,81.877,60.49,180.03,-94.26,10.87,26.366,61.365,34.81,258.57,-93.18,4.619,17.194,38.236,19.64,317.62,-73.04,0.656,8.116,18.075,8.89,326.11,-12.16,-2.015,1.859,4.863,6.81,277.31,47.62,-4.916,-1.816,-6.621,13.6,209.36,16.16,-2.33,-2.471,-12.844,53.69,179.2,-92.06,-1.117,-1.274,-0.724,71.41,167.56,-74.79,-0.588,-1.577,1.588,32.4,130.61,-68.55,2.808,-2.85,-3.107,0.44,104.74,-74.83,4.696,-4.654,-8.191,-10.5,105.33,-63.97,2.245,-4.148,-9.453,-0.86,128.31,-63.3,-0.663,-1.77,-8.378,2.52,152.82,-43.87,-1.675,-1.003,-8.129,8.53,162.12,-45.21,-1.787,-1.335,-8.869,18.57,178.62,-45.09,-2.58,-1.912,-8.75,24.61,203.32,-44.25,-3.131,-2.44,-7.976,17.48,212.66,-53.31,-2.619,-1.45,-7.624,9.85,215.98,-63.36,-2.53,-0.879,-7.574,13.3,213.86,-69.38,-3.196,-1.039,-7.005,21.06,218.52,-63.97,-2.929,-0.859,-6.815,29.71,218.16,-59.87,-2.712,-1.112,-6.924,37.08,217.72,-50.62,-2.837,-1.587,-6.714,41.84,215.31,-53.37,-3.6,-1.495,-7.047,38.76,209.07,-53.37,-3.984,-1.355,-7.303,28.03,213.8,-56.48,-3.634,-1.118,-6.31,21.4,211.94,-59.79,-3.206,-1.676,-5.78,20.97,204.28,-48.6,-3.243,-1.797,-5.901,18.82,196.33,-44.23,-3.007,-1.729,-6.027,17.36,185.73,-34.36,-3.008,-1.959,-6.125,18.09,179.68,-24.56,-3.399,-1.992,-6.375,20.66,175.05,-20.25,-3.757,-2.261,-6.845,22.12,172.51,-24.14,-4.4,-1.789,-6.972,21.54,172.07,-31.84,-4.763,-1.136,-6.569,20.45,170.66,-34.08,-5.017,-0.936,-6.551,18.22,168.65,-28.05,-5.472,-1.23,-6.686,14.26,171.71,-21.04,-5.593,-1.336,-6.182,11.38,173.08,-17.8,-5.941,-1.468,-6.394,11.61,168.51,-19.58,-6.252,-1.656,-6.855,13.23,169.1,-28.47,-7.001,-2.072,-6.51,15.16,169.64,-41.3,-7.817,-1.823,-6.698,18.99,173.89,-48.8,-8.929,-1.51,-6.953,23.42,196.74,-57.28,-9.12,-0.883,-5.91,28.31,241.41,-53.45,-7.021,-0.572,-2.605,35.56,288.1,-42.88,-3.849,-0.229,0.449,39.53,333.46,-33.95,-3.238,0.927,1.758,52.75,389.44,-36.37,-4.523,1.081,5.546,75.72,448.28,-66.49,-0.091,4.078,20.193,104.27,436.87,-126.1,12.9,8.5,46.334,104.19,334.41,-192.48,23.301,21.876,76.279,111.05,196.2,-107.41
20191003-1152-FRANKFURT_1-01-104,Schraubensalto A,14.49,5.687,78.219,-23.59,185.8,-14.48,7.498,0.709,64.532,-23.46,224.86,-36.97,1.611,-2.734,43.246,-43.57,258.94,-55.02,-2.525,-2.695,23.983,-59.45,277.98,-62.01,-1.719,-3.777,10.292,-72.71,267.08,-104.31,-0.292,-6.771,-2.832,-108.99,241.32,-119.78,-2.929,-6.269,-7.748,-141.38,232.41,-136.1,-3.515,-3.962,-0.638,-153.61,214.39,-166.51,-3.231,-2.929,-0.819,-156.02,185.36,-197.26,-3.123,-3.19,-1.022,-151.9,155.32,-250.88,-3.421,-1.41,-0.153,-156.07,111.1,-291.21,-4.337,-0.005,-0.667,-158.82,72.48,-318.1,-5.711,-0.513,-1.136,-174.97,48.98,-331.45,-7.424,-1.658,0.326,-198.89,23.14,-348.92,-9.283,-1.467,1.692,-222.16,-9.53,-372.49,-11.81,-1.377,1.213,-231.04,-64.05,-416.92,-13.283,0.03,0.714,-222.33,-103.15,-427.84,-13.938,2.29,-0.946,-197.07,-138.34,-429.68,-13.54,4.178,-2.452,-163.63,-152.01,-424.08,-12.757,5.21,-6.391,-112.56,-143.28,-441.25,-10.778,4.221,-8.681,-40.9,-130.36,-458.94,-8.834,3.318,-10.36,33.43,-124.9,-476.91,-7.185,2.172,-11.595,100.57,-118.55,-486.04,-6.531,0.668,-11.349,140.24,-102.84,-476.13,-6.426,0.695,-11.672,160.48,-70.02,-466.06,-6.886,2.436,-12.399,162.06,-22.83,-460.78,-6.717,3.684,-11.988,158.45,45.77,-442.71,-5.584,4.572,-11.002,149.79,104.62,-411.07,-4.745,4.416,-9.739,133.4,150.94,-364.73,-3.345,4.423,-8.682,118.95,179.24,-320.93,-3.133,4.073,-8.225,105.15,187.93,-266.1,-2.906,3.481,-8.07,94.96,185.4,-224.16,-2.659,2.482,-8.132,82.0,165.19,-207.18,-3.588,0.773,-8.106,55.19,162.22,-175.51,-4.081,-0.415,-6.944,38.57,163.8,-153.11,-2.537,-0.351,-7.649,30.72,166.22,-130.38,-3.041,0.296,-9.326,22.42,181.23,-75.09,-6.652,0.615,-8.87,25.85,219.15,-30.81,-6.241,0.038,-8.515,38.3,243.16,4.16,-6.458,-1.444,-9.016,36.67,247.11,-1.47,-7.947,-1.144,-6.45,18.85,258.08,-9.07,-7.829,-0.295,-4.953,6.1,254.52,-26.11,-8.185,-0.222,-4.94,1.46,253.81,-55.77,-9.187,-0.691,-2.237,-25.74,249.72,-88.58,-7.239,0.782,0.786,-58.88,251.52,-77.45,-3.197,1.197,0.195,-72.04,268.08,-22.53,1.12,1.555,8.658,-43.19,272.5,4.18,2.717,2.291,29.853,-22.45,233.44,19.85,9.405,2.936,52.761,-24.25,161.73,48.37,17.493,9.241,74.98,-11.23,86.05,54.52
20191007-1534-FRANKFURT_2-01-104,Schraubensalto A,12.488,14.926,79.942,2.17,219.07,-4.76,4.546,13.604,64.249,-5.54,263.96,1.35,1.9,8.915,43.067,0.69,300.79,9.3,-1.568,4.324,21.628,15.87,299.56,5.94,-2.29,1.655,5.216,36.78,264.95,-12.96,-0.69,-0.284,-5.201,63.03,250.71,25.99,-2.138,3.18,-4.898,85.45,257.88,87.62,-2.617,1.713,-1.186,122.06,228.25,127.48,-3.145,0.903,-2.886,157.03,198.01,184.34,-3.862,2.175,-3.058,185.27,159.94,237.48,-4.805,0.285,-2.266,194.37,120.94,281.09,-4.668,-2.637,-2.715,190.05,77.82,316.36,-5.377,-2.844,-3.326,206.32,54.68,326.86,-6.63,-3.085,-1.582,228.6,33.97,325.68,-7.088,-3.285,-0.055,251.12,3.33,330.52,-7.118,-2.537,-0.503,270.58,-31.3,340.94,-7.608,-2.745,-0.921,281.38,-66.75,352.57,-7.905,-2.442,-1.09,277.81,-101.0,366.06,-8.672,-1.938,-2.354,257.98,-124.41,391.76,-9.976,-1.668,-2.841,209.82,-145.93,421.38,-10.921,-2.038,-3.4,151.59,-167.91,446.7,-10.906,-2.329,-6.68,84.92,-169.19,461.73,-10.036,-2.085,-9.449,22.88,-145.41,466.4,-8.983,-2.962,-11.227,-33.68,-103.1,465.97,-7.933,-3.035,-11.651,-83.21,-57.17,461.54,-6.88,-3.045,-11.514,-120.11,-22.96,450.2,-6.453,-3.208,-11.515,-141.44,9.71,433.28,-6.17,-3.533,-11.163,-153.65,44.31,409.32,-6.206,-3.311,-10.146,-153.57,74.1,385.02,-6.213,-3.573,-10.002,-141.66,97.78,359.21,-5.754,-4.508,-9.832,-122.77,117.94,326.24,-5.358,-4.575,-8.714,-103.48,132.49,290.27,-5.237,-3.852,-8.254,-80.34,144.28,261.01,-5.407,-3.831,-7.801,-54.95,151.43,232.68,-5.437,-3.501,-6.919,-31.03,154.98,204.21,-5.397,-2.827,-6.096,-8.22,157.03,184.74,-5.83,-2.326,-6.099,13.31,162.9,159.15,-5.761,-2.581,-4.551,27.96,160.75,134.9,-5.32,-2.376,-5.072,39.64,161.22,103.78,-4.364,-1.944,-6.507,36.38,179.24,63.23,-4.207,-2.11,-6.77,24.46,192.4,40.68,-6.542,-1.717,-6.053,18.89,214.51,30.16,-7.965,-0.388,-3.767,27.57,236.75,30.58,-8.76,-0.643,-1.061,47.69,254.95,32.24,-8.348,-2.512,2.511,60.64,269.42,8.43,-4.311,-4.335,6.426,57.57,284.13,-20.13,1.505,-2.314,13.416,68.69,303.25,-18.68,8.163,3.103,28.684,83.77,293.17,-58.92,15.825,9.224,54.266,71.14,254.39,-34.67,23.487,13.188,77.158,82.98,113.2,0.29
0609-4-01-600,Barani C,24.67,5.247,84.301,32.82,-7.16,72.38,14.167,1.973,63.426,20.6,-107.54,77.21,6.5,-0.281,37.293,-6.9,-212.97,64.22,-0.307,-2.526,16.567,-27.03,-286.74,23.21,-4.527,-4.685,-0.889,-27.09,-297.99,8.29,-6.228,0.496,-8.432,-61.42,-301.4,92.69,-8.336,5.011,-2.377,-44.41,-360.16,42.61,-13.171,0.629,2.164,-26.1,-369.45,35.78,-16.159,1.153,1.509,-29.61,-405.09,45.31,-17.136,3.053,-0.209,-27.54,-425.12,57.79,-16.577,2.923,-2.369,-28.15,-418.78,75.14,-14.269,1.832,-4.789,-29.26,-405.18,94.81,-11.914,0.035,-6.958,-29.14,-372.19,106.01,-9.762,-0.693,-7.601,-34.69,-321.59,119.01,-8.67,-0.788,-8.236,-33.62,-256.45,133.27,-8.264,0.379,-9.108,-17.96,-194.73,151.22,-7.837,2.857,-9.566,7.71,-131.73,165.88,-8.006,4.15,-8.889,27.54,-85.58,170.11,-8.731,3.122,-9.105,27.08,-55.09,186.6,-9.398,2.797,-9.453,14.63,-42.97,233.74,-8.41,2.116,-6.046,6.82,-47.45,276.99,-6.085,-0.675,-2.195,-10.33,-76.27,300.41,-4.432,-1.289,-4.126,-28.74,-99.43,316.36,-4.254,-0.21,-7.929,-34.48,-75.86,318.59,-5.024,-0.004,-9.004,-28.78,-17.65,319.26,-5.531,-0.794,-7.667,-33.18,30.97,311.43,-5.518,-1.202,-6.303,-46.87,60.2,298.26,-5.07,-0.85,-5.619,-51.81,76.45,279.44,-4.709,-1.061,-5.812,-47.67,88.68,260.87,-4.441,-1.142,-5.634,-45.61,103.59,241.89,-4.413,-1.06,-5.871,-40.0,117.53,227.81,-4.435,-1.148,-5.802,-31.08,128.11,213.19,-4.337,-1.255,-5.826,-18.95,139.26,195.61,-4.417,-1.523,-5.625,-6.57,148.55,175.95,-4.463,-1.705,-5.103,2.88,154.94,156.33,-4.549,-1.753,-4.827,7.96,155.65,136.08,-4.785,-1.794,-4.419,10.47,151.61,112.61,-4.877,-1.754,-3.858,10.45,145.23,90.43,-5.131,-1.404,-3.476,9.14,142.58,76.52,-5.566,-0.717,-3.045,9.45,144.37,74.53,-5.654,-0.661,-2.184,15.41,147.58,70.86,-5.65,-0.826,-1.51,22.93,149.42,63.74,-5.834,-0.801,-1.116,26.35,159.61,60.64,-5.53,-0.932,-0.649,28.55,173.51,65.84,-4.015,-1.469,0.734,36.37,181.1,62.14,-0.625,-2.063,2.623,44.4,185.2,44.93,5.033,-2.566,7.718,38.34,190.76,3.46,11.417,-3.178,22.493,33.41,206.4,-27.09,20.666,-4.045,53.702,12.35,173.34,-34.25,35.303,-1.402,72.938,-8.49,63.88,-26.32
0827-BK2-01-10,Salto C,30.589,-8.673,91.138,-31.95,88.94,8.8,21.263,-6.74,62.27,-41.49,120.43,15.82,13.155,-2.844,32.786,-23.46,116.76,48.64,6.574,-0.137,10.852,10.48,62.05,68.13,-0.122,0.103,-4.356,30.94,1.83,45.25,-4.89,-0.031,-5.847,22.41,-14.3,-0.06,-8.099,0.667,-4.409,9.11,-51.14,-33.14,-9.925,3.401,-7.477,2.07,-69.66,-34.15,-8.444,2.892,-7.7,11.0,-48.21,-40.2,-3.818,2.016,-7.263,22.15,32.79,-12.88,1.525,1.081,-9.661,42.05,202.67,-4.23,-0.967,0.999,-10.423,41.04,425.72,-6.84,-7.696,1.458,-10.47,39.38,548.28,-13.86,-12.997,2.339,-7.605,41.35,549.63,-24.49,-15.695,1.614,-6.716,35.85,499.24,-30.96,-15.997,1.594,-8.306,20.46,489.26,-23.28,-15.906,0.744,-10.147,-9.43,492.6,-3.44,-17.153,1.49,-13.886,-25.21,488.12,21.29,-17.981,0.192,-6.319,-34.89,446.1,21.47,-7.541,0.52,16.002,-21.79,260.56,18.32,-0.293,0.999,-2.282,-2.13,161.0,-32.37,-1.63,0.458,-2.241,-31.79,171.82,1.43,-0.02,1.121,-0.639,-29.03,138.1,2.25,-0.189,1.484,-3.01,-14.03,124.86,7.34,-0.249,0.896,-3.499,-16.81,125.77,10.9,-0.612,0.372,-2.933,-18.57,123.44,-7.83,-1.429,0.542,-2.687,-14.13,125.96,-23.32,-1.802,0.861,-1.745,-10.32,120.91,-20.08,-1.189,1.366,-2.567,-5.68,111.26,-19.45,-1.228,1.425,-1.48,-1.11,96.34,-7.8,-1.466,0.609,-1.696,0.82,79.34,-2.5,-1.754,0.343,-2.076,1.98,72.17,-6.74,-2.153,0.642,-1.541,1.05,66.05,-9.59,-2.529,0.002,-0.782,-0.99,53.48,-13.44,-1.89,1.003,-1.425,3.23,38.16,-6.07,-1.382,1.132,-2.706,18.58,46.67,6.29,-0.84,0.349,-2.648,23.8,49.07,8.34,-0.909,0.449,-2.857,14.43,53.64,13.33,-1.426,0.69,-2.574,4.71,70.54,12.88,-1.296,0.864,-2.581,-1.06,81.34,9.43,-1.65,1.165,-3.21,-5.61,103.89,2.85,-2.374,1.155,-3.275,-13.58,132.78,1.78,-3.52,0.937,-3.344,-18.02,150.93,1.83,-4.151,0.818,-3.374,-20.93,163.5,1.62,-5.501,0.741,-1.892,-10.69,179.79,4.11,-5.012,-0.28,0.195,3.56,195.23,-1.51,-1.938,-1.504,3.025,1.42,229.47,-15.29,4.362,-1.981,20.723,1.69,257.46,-14.25,19.577,0.159,59.326,-6.09,189.69,12.09,36.618,0.719,89.829,12.36,94.4,19.01
20191007-1159-FRANKFURT_1-01-229,Barani A,25.948,-7.462,87.137,0.41,-53.53,-18.64,18.913,-6.029,71.181,19.26,-129.78,-52.59,5.842,-3.176,44.176,32.81,-199.09,-44.5,-4.078,0.437,23.614,40.84,-284.48,-3.29,-9.004,2.858,2.045,45.38,-333.15,35.87,-6.721,1.25,-4.471,33.24,-330.75,75.2,-5.562,0.372,-2.585,11.68,-287.13,94.77,-7.629,1.681,-5.338,7.03,-208.06,118.13,-8.208,2.688,-5.713,1.24,-141.99,125.22,-8.001,1.473,-5.065,-13.02,-133.94,117.12,-7.859,0.718,-6.96,-29.12,-111.88,112.0,-6.336,1.038,-6.452,-53.52,-112.75,129.04,-5.018,2.272,-6.872,-71.59,-135.1,158.1,-4.378,2.129,-7.735,-80.41,-143.18,177.79,-4.218,1.283,-6.937,-105.68,-160.14,207.92,-4.578,2.296,-8.108,-123.01,-174.47,229.07,-4.35,1.655,-9.688,-137.84,-171.08,235.11,-4.182,0.302,-10.375,-150.62,-148.38,251.63,-3.204,0.732,-12.378,-145.89,-101.25,281.3,-2.423,0.766,-12.02,-130.32,-66.91,310.28,-3.655,-0.058,-10.088,-110.49,-33.4,339.09,-4.784,-0.565,-8.712,-91.71,11.4,373.66,-4.699,-2.701,-9.077,-72.94,48.09,384.21,-4.956,-4.039,-8.625,-67.28,86.73,384.16,-4.405,-4.601,-8.426,-59.88,118.26,363.81,-4.116,-6.124,-7.984,-54.15,137.44,314.07,-3.955,-5.506,-6.909,-49.36,156.83,269.99,-2.875,-4.759,-6.83,-40.33,177.26,222.4,-2.863,-4.336,-6.992,-33.85,175.61,172.81,-3.479,-3.306,-6.531,-27.55,181.98,140.68,-3.429,-2.889,-6.637,-14.46,181.9,111.94,-4.058,-2.816,-7.16,-7.69,174.94,82.06,-5.343,-2.038,-6.791,-0.87,175.42,54.52,-5.937,-1.556,-6.573,5.61,183.75,33.02,-6.858,-1.846,-6.481,7.45,198.28,13.57,-7.593,-0.995,-6.373,6.17,212.37,6.99,-7.938,-0.191,-5.605,10.3,217.37,1.74,-8.695,-0.424,-4.808,11.49,230.33,-3.45,-9.175,-0.978,-5.036,8.88,248.7,-11.26,-8.458,-0.381,-3.232,1.19,255.59,-15.27,-8.095,0.257,-2.16,-1.03,265.09,-22.3,-7.418,-0.326,-1.416,5.44,281.81,-25.87,-6.851,-0.795,0.237,17.27,297.51,-35.48,-5.176,-0.61,1.547,23.39,309.46,-38.09,-1.74,-0.959,2.972,26.89,330.99,-41.23,0.916,-3.294,4.479,10.57,371.37,-41.68,4.931,-0.196,11.728,-30.39,372.07,-35.66,10.458,4.021,33.264,-62.94,254.96,16.77,22.052,0.079,64.744,-63.78,126.96,27.12,29.979,-5.04,80.603,-82.37,49.9,-3.13
20191008-1207-FRANKFURT_2-01-141,Salto B,-2.24,8.195,88.359,8.11,171.71,-65.18,-2.634,8.194,62.034,12.66,218.03,-65.37,-1.915,6.351,35.072,30.31,194.94,-31.21,-3.153,3.103,16.276,39.74,118.28,-5.84,-2.956,-1.382,3.207,22.12,32.49,-10.41,-2.845,-5.115,-6.713,7.28,-75.87,19.14,-2.934,-3.287,-1.886,6.43,-39.58,-20.08,-2.997,3.277,1.138,-13.03,-109.04,0.43,-6.251,-0.721,-6.471,-25.31,-210.87,3.95,-9.457,-2.801,-8.887,-15.84,-245.37,5.43,-13.282,-1.666,-9.295,-18.28,-180.92,49.54,-11.295,-1.303,-5.763,-32.21,-110.37,21.97,-7.73,-0.466,-2.724,-35.91,-54.72,3.46,-0.726,-0.38,-2.477,-18.59,16.67,-44.87,10.107,0.183,-1.688,5.45,121.06,-48.06,10.776,-0.798,-7.048,2.81,239.83,-33.81,4.46,-0.796,-14.519,3.88,361.49,-37.46,-3.533,-0.96,-18.511,9.64,512.26,-30.27,-11.772,-1.47,-21.723,23.61,622.79,-21.14,-15.999,-0.721,-22.034,34.78,675.2,-10.18,-20.555,-0.152,-22.081,51.02,681.35,-4.3,-25.22,-0.425,-23.372,66.45,671.4,-12.69,-28.858,0.229,-22.999,74.88,650.34,-36.21,-30.934,0.681,-23.351,71.35,629.64,-45.02,-30.697,2.781,-16.244,72.22,605.36,-53.9,-22.838,0.532,-7.141,54.44,547.01,-77.39,-16.644,0.365,0.052,38.47,463.91,-69.07,-11.242,0.878,7.972,37.23,359.4,-47.17,-6.341,0.834,4.956,34.89,259.28,-13.5,-3.521,0.791,1.307,32.38,193.81,-0.88,-1.647,-0.722,0.071,21.07,137.8,-3.86,0.12,-1.452,-3.537,7.32,108.9,-9.52,0.047,-1.279,-6.694,-7.34,123.82,-14.83,0.365,-1.212,-4.002,-13.85,131.96,-23.84,-0.66,-1.012,-3.032,-10.2,98.75,-16.62,-1.045,-0.668,-3.687,-0.21,86.75,-8.29,-1.788,-0.924,-3.989,9.02,81.01,-6.45,-1.725,-0.782,-3.472,16.67,76.52,-12.68,-2.159,-1.384,-4.129,14.64,67.06,-18.59,-2.133,-2.268,-4.543,7.29,59.16,-22.4,-2.74,-0.948,-5.411,4.64,48.77,-17.46,-3.938,-0.153,-5.898,15.54,51.55,-12.25,-5.333,-0.604,-5.324,9.15,93.73,-2.19,-5.234,0.397,-2.36,1.44,150.42,-3.36,-1.087,1.07,1.39,9.8,159.06,-4.39,4.181,0.577,4.636,15.64,186.37,-18.13,3.977,-1.328,6.189,12.7,310.79,-16.17,4.146,0.437,17.368,10.05,377.57,-15.73,12.755,7.122,51.109,11.27,309.87,23.01,22.317,7.519,85.136,63.55,157.58,53.3
20190930-1247-FRANKFURT_2-01-88,Barani C,18.421,3.214,86.846,-10.63,3.98,-13.58,12.838,4.539,67.895,-19.3,-48.92,3.15,6.332,4.295,42.433,-23.31,-122.56,48.47,0.725,3.635,20.226,-42.91,-229.66,88.77,-6.556,1.63,0.678,-61.41,-285.16,97.28,-12.89,-1.671,-9.384,-59.63,-276.2,70.65,-8.887,0.029,-3.329,-43.47,-283.91,5.19,-6.852,-1.43,-2.259,-60.0,-374.52,5.32,-16.176,1.374,-2.366,-68.02,-421.62,22.61,-16.398,2.749,-3.519,-67.22,-410.7,16.19,-15.765,2.924,-5.105,-72.88,-483.24,15.91,-18.611,2.452,-6.451,-76.88,-509.57,16.65,-16.164,1.239,-9.287,-74.97,-499.92,22.69,-16.228,1.462,-11.342,-67.51,-515.23,26.72,-14.656,1.483,-14.039,-64.76,-483.64,36.55,-6.6,1.706,-12.464,-50.88,-430.95,83.11,-6.288,2.512,-7.573,-40.35,-325.98,135.63,-5.121,2.537,-7.387,-35.06,-213.77,181.93,-4.994,1.295,-6.914,-21.22,-131.47,192.82,-4.034,0.672,-5.993,-29.36,-49.5,197.48,-2.965,1.219,-6.759,-39.1,1.3,188.37,-2.657,1.969,-7.768,-36.91,27.48,171.03,-2.383,4.699,-9.369,-29.58,44.41,175.73,-2.818,7.449,-11.278,-2.31,47.11,193.87,-5.711,6.266,-10.698,7.15,41.6,211.66,-9.172,1.224,-4.84,-13.31,-11.79,201.47,-3.835,-5.384,6.523,-76.42,37.06,134.17,3.514,0.901,-5.113,-129.2,-41.51,206.8,-4.011,2.053,-6.698,-103.52,-54.21,168.4,0.051,-1.162,-4.245,-112.3,9.17,156.12,0.622,-1.339,-6.2,-124.59,-23.04,187.12,-1.782,-1.433,-6.228,-117.51,8.57,181.32,-0.965,-1.223,-5.802,-107.53,28.63,194.16,-1.862,-1.411,-5.314,-92.6,48.63,195.42,-1.591,-1.632,-4.562,-78.17,58.58,194.53,-1.577,-2.095,-4.488,-65.33,66.34,190.82,-1.857,-2.268,-4.597,-55.25,75.49,181.64,-2.185,-2.126,-4.209,-47.17,88.62,160.96,-2.307,-2.37,-4.258,-43.26,100.02,137.33,-1.907,-1.92,-4.886,-41.49,112.88,115.05,-2.022,-1.64,-5.012,-42.07,113.16,101.97,-2.613,-1.926,-4.788,-47.32,110.03,98.7,-3.049,-1.813,-4.288,-50.97,110.03,100.33,-3.744,-1.677,-3.093,-41.13,116.02,90.49,-2.574,-2.202,-1.04,-31.59,150.89,69.18,-1.14,-1.368,1.991,-41.5,190.49,47.58,0.016,0.618,7.061,-51.43,226.84,54.86,5.31,1.893,24.963,-22.49,237.53,55.57,12.59,1.383,49.831,-9.5,221.81,63.12,17.543,2.074,75.766,9.6,185.39,75.74
20191007-1159-FRANKFURT_1-01-189,Barani B,28.154,0.614,82.353,5.78,-163.63,3.3,25.458,0.495,65.03,4.28,-228.42,-3.77,11.348,-1.189,41.815,2.75,-301.43,-18.51,-5.442,-2.706,20.312,13.84,-389.03,-33.6,-17.634,-2.253,2.477,29.73,-483.02,-9.82,-21.198,0.375,-4.57,40.82,-528.98,21.77,-20.086,-0.161,-3.81,43.22,-532.25,36.62,-17.375,-0.7,-7.811,31.77,-508.09,53.3,-13.129,-1.449,-10.86,11.54,-441.85,59.43,-6.217,-1.024,-13.476,-14.82,-389.03,51.4,0.277,-2.328,-11.298,-37.06,-377.51,17.55,2.978,-4.235,-6.143,-59.55,-354.13,-18.94,1.223,-3.156,-2.877,-65.54,-289.55,-22.58,-2.18,-0.926,-1.259,-42.38,-219.47,-18.67,-5.366,1.312,-0.134,-4.48,-154.88,-1.56,-6.36,1.305,-2.41,21.66,-104.26,32.15,-7.097,3.895,-5.025,37.85,-79.26,102.55,-7.323,7.489,-5.477,70.39,-71.42,180.34,-9.644,8.9,-4.558,115.2,-63.6,260.76,-10.677,7.336,-3.15,136.19,-54.48,354.77,-10.439,3.78,-2.703,138.13,-44.76,420.85,-9.207,2.582,-4.238,118.91,-21.88,460.3,-8.928,0.551,-5.131,92.37,0.22,466.95,-8.859,-2.152,-5.881,66.02,18.06,472.31,-7.048,-2.985,-5.874,46.67,14.9,468.19,-5.418,-4.028,-5.938,38.92,19.47,438.78,-4.825,-3.693,-5.684,39.31,43.47,387.01,-4.807,-4.628,-5.471,37.36,75.09,330.7,-4.173,-5.265,-5.22,24.04,94.92,265.01,-3.706,-4.138,-5.177,15.31,105.26,206.35,-3.446,-2.665,-4.991,14.69,111.34,163.53,-3.822,-2.392,-5.224,11.86,123.61,118.81,-4.151,-1.375,-5.344,10.8,140.24,95.75,-4.349,-1.305,-4.752,9.37,159.24,71.34,-4.454,-1.185,-4.792,2.94,186.43,52.68,-4.527,-0.121,-5.47,6.1,222.23,38.68,-4.517,-1.607,-6.269,1.65,240.77,23.52,-5.386,-1.48,-7.122,-19.01,255.35,15.09,-7.136,-1.554,-7.75,-39.53,277.58,11.69,-8.919,-1.651,-6.351,-49.45,312.05,-3.13,-10.555,-0.83,-3.938,-48.53,314.37,9.67,-12.353,-0.278,-2.923,-39.72,314.86,33.65,-11.863,-1.105,0.117,-23.64,322.89,48.46,-9.989,-1.83,3.089,4.64,354.0,55.02,-6.244,-2.835,4.571,33.42,373.29,41.16,-2.677,-3.983,7.413,45.97,366.47,-3.32,5.792,-3.871,15.306,16.22,390.31,-40.79,6.661,-0.141,29.634,-34.2,328.69,-80.13,8.653,-1.163,57.982,-60.09,187.78,-88.38,10.529,-1.162,80.772,-57.26,127.65,-65.63
0115-MORITZ-03-57,Salto C,36.184,-4.716,91.997,4.57,91.22,3.74,20.264,-2.822,61.05,-1.12,149.03,-10.81,9.288,-2.494,31.649,-1.24,156.95,-8.71,1.78,-0.072,10.963,12.46,65.32,7.4,-3.68,-1.36,-4.279,10.91,-61.64,14.28,-5.319,-1.794,-6.981,11.1,-79.66,7.54,-8.005,-0.666,-2.328,11.45,-103.17,2.64,-9.075,-1.271,-8.979,6.0,-106.12,-12.17,-4.224,-0.608,-10.437,-14.65,36.6,-2.76,-0.936,-0.738,-10.094,-31.4,239.72,-1.63,0.553,0.163,-12.647,-54.16,408.75,16.07,-3.454,0.696,-14.381,-56.42,537.99,48.19,-10.767,-1.123,-9.015,-34.03,563.12,44.43,-11.913,-2.142,-6.457,-31.3,524.54,38.64,-12.275,-0.833,-10.66,-13.46,471.35,37.55,-15.368,-1.101,-15.961,-9.57,407.95,25.25,-18.185,-0.268,-23.118,-3.17,381.73,14.33,-16.436,-1.44,-4.889,-5.6,356.4,29.83,-9.131,-1.226,2.03,-10.18,278.65,14.48,-7.283,-2.106,1.927,-9.91,231.85,8.84,-2.88,-0.906,-0.642,2.16,181.34,8.11,-1.629,-0.257,-2.135,3.35,164.16,6.26,-1.828,-0.562,-3.476,2.04,161.02,6.6,-1.607,-0.408,-3.538,5.23,163.49,8.3,-1.289,-0.608,-3.31,5.95,165.96,8.72,-1.267,-0.69,-3.368,4.19,167.4,8.3,-1.627,-0.496,-3.295,2.84,166.6,9.31,-1.753,-0.58,-2.912,3.54,162.49,8.93,-1.292,-0.721,-2.859,2.2,153.08,5.3,-1.405,-0.511,-3.143,0.42,149.14,2.39,-1.548,-0.626,-3.047,-0.21,146.44,1.4,-1.45,-0.588,-2.885,-0.39,145.8,0.56,-1.331,-0.557,-3.042,-0.04,144.24,-0.54,-1.463,-0.628,-2.846,-0.05,143.62,1.06,-1.381,-0.585,-2.72,-0.32,141.51,0.57,-1.356,-0.792,-2.475,-1.79,139.66,-1.91,-1.201,-0.655,-1.981,-2.52,126.35,-3.21,-1.379,-0.598,-2.178,-0.18,109.7,2.16,-1.063,-0.314,-1.556,3.99,86.82,3.61,-1.256,-0.36,-2.308,4.94,63.94,-1.04,-1.757,-0.625,-2.621,-1.0,47.17,-5.71,-2.497,-0.364,-2.955,-4.45,30.34,0.91,-2.946,-0.987,-2.727,-5.38,9.1,2.86,-3.586,-0.695,-2.198,-9.71,-13.64,17.62,-5.857,-1.041,-1.12,-7.24,7.85,36.7,-4.387,-1.664,0.937,-0.76,63.96,39.23,3.258,-2.004,3.31,12.22,108.93,20.46,19.493,-1.847,13.749,19.45,177.61,-10.09,30.156,-3.31,43.047,3.65,261.06,-33.25,46.435,-6.139,87.078,-11.7,147.84,-38.21
20191007-1159-FRANKFURT_1-01-306,Salto A,-0.855,-2.604,81.479,-19.74,278.2,-24.44,-2.8,-2.186,55.671,-18.69,339.68,-7.8,-2.378,-1.633,28.637,-12.51,364.41,15.95,-1.852,-1.308,8.12,3.12,281.75,40.68,-6.606,-2.007,-4.506,23.24,224.53,-11.67,-3.695,-1.615,-2.365,19.12,262.4,-19.83,7.487,2.256,2.363,32.55,219.11,-27.1,3.802,-1.442,-2.778,41.16,178.07,33.01,2.537,-1.387,-5.674,35.13,159.93,15.83,2.419,-0.174,-7.977,29.9,157.1,23.25,2.467,-0.483,-7.576,21.42,166.32,11.53,1.933,-1.317,-8.44,0.44,170.05,2.07,0.521,-1.445,-9.151,-8.35,179.88,-6.98,-0.046,-1.317,-8.849,-9.5,198.86,-20.37,-0.562,-0.925,-8.65,-10.46,212.24,-23.59,-0.976,-0.57,-7.518,-6.88,214.08,-14.83,-1.203,-0.743,-7.082,-3.72,215.78,-7.93,-0.924,0.222,-7.419,3.02,211.2,3.45,-0.892,-0.582,-7.11,16.25,213.73,9.78,-0.907,-0.465,-7.371,18.31,218.91,5.81,-1.024,-1.074,-7.12,16.77,222.94,1.63,-1.269,-1.051,-7.349,13.81,220.27,2.04,-1.752,-0.623,-7.402,14.33,217.81,1.95,-2.502,-1.25,-6.732,12.04,218.17,-0.11,-2.308,-0.919,-6.484,7.91,216.49,0.49,-1.897,-0.91,-6.473,4.87,205.69,3.59,-1.815,-1.102,-6.728,6.04,196.61,4.36,-2.002,-1.475,-6.207,5.28,186.81,-0.86,-2.294,-1.493,-6.379,0.49,178.27,-5.61,-2.615,-1.025,-6.92,-0.82,173.62,-10.69,-3.217,-0.647,-6.931,3.02,166.22,-16.2,-3.455,-0.732,-6.658,4.46,156.11,-19.33,-4.093,-0.797,-6.072,1.87,148.37,-22.6,-4.597,-0.18,-5.447,-0.0,148.6,-22.96,-4.702,-0.612,-5.239,-0.86,146.4,-18.74,-5.366,-0.786,-4.97,-1.85,146.09,-14.55,-4.892,-0.213,-4.294,-1.55,142.52,-5.26,-5.542,-0.009,-4.936,2.2,156.85,3.63,-5.246,-0.473,-2.867,3.88,168.58,8.45,-4.923,-0.848,-3.352,3.44,188.43,9.14,-4.494,0.019,-2.591,5.58,208.86,3.24,-4.308,-0.11,-1.682,12.39,221.78,-6.9,-4.303,-0.579,-1.847,11.08,236.5,-12.67,-3.488,-0.292,-0.245,5.95,249.02,-9.77,-2.692,0.208,-0.271,2.5,272.14,-6.66,-1.172,-0.687,1.194,0.15,298.21,-13.24,2.813,-0.977,7.123,-8.01,309.33,-17.9,8.169,-0.157,28.871,-16.29,226.9,12.0,15.971,0.735,62.435,7.56,118.12,-3.33,23.682,3.375,81.052,11.11,43.73,-24.83
0609-1-01-649,Bauchsprung,12.778,-2.531,77.828,4.25,71.59,19.83,5.525,-3.643,62.516,3.44,57.72,-0.38,1.285,-2.937,41.746,-9.26,26.79,-12.58,-0.468,-0.979,22.004,-11.16,-2.83,-15.1,-0.484,-1.696,7.377,4.59,-39.43,-15.99,1.164,-2.22,0.274,5.79,-53.66,-16.74,3.479,0.444,-0.184,-2.18,-74.65,-5.76,1.102,1.73,-2.857,-4.87,-39.19,-1.42,-0.673,0.608,-0.865,0.39,-36.35,3.29,-0.798,0.023,0.344,1.08,-36.1,2.8,-0.557,0.013,0.034,-2.58,-43.7,4.44,-0.278,-0.111,-0.023,-4.41,-40.81,1.29,-0.376,-0.002,-0.078,-7.27,-44.35,-2.37,-0.327,-0.065,0.085,-7.41,-46.57,-4.98,-0.513,-0.158,0.266,-5.61,-54.78,-6.25,-0.4,-0.182,0.351,-3.47,-62.03,-8.71,-0.486,-0.169,0.458,-0.62,-72.06,-12.92,-0.46,0.048,0.555,5.9,-85.24,-14.08,-0.578,0.052,0.834,14.34,-88.97,-11.98,-0.591,-0.284,0.542,19.22,-101.91,-15.67,-0.83,-0.273,-0.333,12.46,-117.62,-14.27,-0.553,-0.031,-0.269,5.04,-114.1,-14.55,-0.759,-0.271,-0.76,-0.91,-107.76,-6.28,-1.096,-0.088,-0.195,-5.02,-96.89,7.35,-1.406,-0.067,-0.2,-1.56,-95.97,12.74,-1.791,-0.005,-0.607,5.25,-99.9,18.8,-1.701,-0.227,-0.787,3.15,-102.0,19.77,-1.479,-0.217,-1.267,-6.28,-82.41,29.19,-0.834,-0.111,-1.099,-11.01,-73.43,24.34,-0.232,-0.937,-0.919,-11.57,-72.05,17.56,-0.052,-0.841,-1.05,-15.22,-73.14,10.42,0.399,0.674,-1.709,-8.77,-67.3,-0.79,0.975,0.249,-1.622,-1.31,-60.63,-6.17,1.325,0.31,-1.017,-1.46,-60.17,5.84,1.422,0.465,-0.813,5.97,-55.61,16.73,1.719,-0.698,-0.903,19.22,-45.68,17.16,1.552,-1.767,-0.419,27.44,-40.28,0.4,0.611,-1.575,-1.476,24.23,-24.18,-13.3,-0.086,-1.108,-1.451,23.46,-21.11,-5.9,-2.317,-0.433,-2.044,6.73,3.56,-0.39,-2.083,0.279,-1.572,-2.25,25.32,9.93,-2.295,-0.888,-1.921,-8.38,52.55,6.76,-0.531,-1.829,-1.695,-10.14,78.9,-9.85,-0.645,-0.796,-1.568,-16.29,79.62,-12.4,-0.861,0.94,-0.72,-11.78,106.27,-8.81,3.678,0.603,1.506,-1.59,215.22,-12.09,19.833,-2.126,6.391,2.08,208.7,-68.83,35.407,-3.638,23.253,-4.47,74.3,-120.55,51.684,3.779,38.993,-15.1,49.91,-37.84,69.305,5.715,54.246,-1.36,41.33,21.22
0115-JANEIKE-01-121,Salto B,31.501,-1.086,90.994,59.91,169.91,5.0,20.423,-0.262,67.389,32.88,201.41,-53.43,4.424,3.741,38.782,25.53,247.08,-49.17,-1.157,2.156,19.943,40.97,242.89,-37.96,-3.646,0.728,6.307,30.92,115.09,-31.99,-2.174,0.191,-1.417,20.24,-10.21,-54.16,-0.244,-0.627,-0.036,14.82,-111.08,-74.81,-1.63,0.804,0.868,-11.45,-123.22,-34.42,-7.835,1.935,-7.215,-34.15,-156.08,2.76,-7.481,-1.193,-8.213,-22.04,-178.01,2.08,-9.236,-0.523,-5.726,-27.86,-132.77,38.94,-9.148,0.519,-4.387,-30.6,-108.4,10.44,-2.14,-0.677,-0.585,-24.34,-65.48,-17.11,3.987,-1.864,0.801,-28.78,-6.9,-34.15,7.483,-0.645,-4.698,-35.02,84.83,-54.82,7.684,-0.307,-11.822,-41.91,232.54,-73.37,-0.865,-2.33,-15.896,-50.32,391.03,-54.07,-8.257,-0.08,-14.478,-53.22,492.55,-31.4,-12.586,-0.748,-16.116,-52.64,524.87,-9.25,-18.643,0.104,-15.794,-33.37,560.5,9.47,-21.348,1.714,-15.011,-22.28,593.62,40.54,-25.476,-0.891,-13.656,-9.96,608.62,56.29,-27.681,-2.328,-13.531,0.65,601.34,46.22,-26.651,-2.465,-10.327,16.95,572.87,11.54,-20.251,1.585,-3.259,37.06,511.05,24.39,-13.95,-0.137,0.707,51.39,429.28,8.92,-9.16,-0.505,1.815,45.78,350.18,-17.81,-5.486,-0.463,2.633,31.62,281.82,-32.22,-2.691,-0.031,1.833,25.47,223.24,-35.47,-1.717,0.282,-0.395,23.58,185.62,-30.1,-0.91,0.175,0.185,19.48,153.84,-24.53,-0.909,0.03,-1.129,17.97,125.02,-22.91,-1.207,0.215,-1.279,18.44,104.04,-18.78,-2.112,0.148,-0.52,24.12,83.33,-15.31,-2.527,-0.532,-0.873,27.4,50.11,-7.62,-1.985,-0.875,-2.642,26.52,26.51,-4.48,-2.165,-0.185,-3.226,22.62,19.76,-7.16,-1.777,-0.766,-4.123,14.8,13.68,-9.58,-1.37,-0.524,-5.746,3.68,18.42,3.35,-1.399,-1.215,-4.999,0.57,33.37,1.2,-0.202,-0.92,-4.152,-8.75,37.62,-1.87,0.48,-0.511,-3.187,-2.27,52.49,0.99,1.882,-1.143,-2.485,3.56,67.87,2.8,4.315,0.085,0.447,-0.12,98.42,22.01,5.608,1.373,-0.869,10.71,148.65,52.74,3.716,-3.242,-6.137,22.9,243.51,24.96,4.335,-5.097,-9.34,36.99,316.8,-40.81,11.622,-3.127,8.817,55.72,340.72,-52.93,29.856,-0.055,38.717,17.16,279.02,-40.76,48.953,-2.521,68.21,8.67,186.11,-45.98
0115-MORITZ-03-58,Voll- ein- Rudi- aus B,38.262,-0.46,96.708,-6.23,-97.03,-52.48,13.738,2.553,66.394,20.42,-204.29,-36.56,-9.595,-1.708,25.903,56.71,-378.78,14.22,-21.285,-6.083,-20.199,52.64,-504.32,15.22,-10.66,-2.594,-14.633,80.72,-576.97,-85.04,-17.649,-3.695,-8.205,89.16,-535.35,-72.22,-18.848,-6.636,-11.563,31.76,-490.17,-158.29,-16.773,-10.087,-11.558,-94.93,-407.48,-308.05,-17.868,-14.981,-10.285,-226.69,-301.44,-533.41,-24.392,-15.83,-10.866,-338.67,-238.71,-714.22,-30.786,-10.187,-14.305,-428.6,-52.36,-832.35,-28.641,-4.127,-14.175,-446.22,182.75,-911.34,-28.734,-1.48,-9.097,-492.0,303.64,-841.67,-26.659,-1.193,1.617,-614.21,253.36,-737.77,-24.855,8.497,11.374,-776.45,91.3,-563.21,-24.668,23.453,4.287,-789.5,-132.2,-413.98,-30.031,31.415,-13.325,-690.34,-340.79,-295.19,-31.643,29.905,-30.133,-553.34,-508.78,-186.6,-27.638,20.231,-38.067,-447.89,-597.62,-154.5,-12.76,11.793,-37.63,-371.67,-648.96,-216.01,-2.526,4.946,-26.041,-358.3,-492.51,-232.87,-2.86,-3.07,-20.212,-389.91,-260.5,-339.93,-10.916,-20.098,-15.794,-448.17,-87.85,-551.01,-26.909,-29.29,-9.494,-504.7,32.99,-769.65,-38.792,-28.433,-2.608,-502.66,102.66,-885.98,-47.149,-23.755,-2.466,-513.54,207.27,-864.31,-49.464,-14.6,9.985,-571.95,300.62,-762.12,-39.203,-1.748,23.565,-726.44,242.27,-630.38,-26.237,9.606,25.522,-835.59,77.15,-525.61,-23.584,20.661,14.346,-836.45,-173.0,-438.24,-26.087,25.122,-1.637,-734.26,-360.43,-391.4,-30.452,17.915,-14.469,-587.57,-436.86,-426.27,-31.018,9.163,-23.095,-425.51,-451.69,-555.53,-28.892,3.98,-25.438,-270.96,-407.19,-684.09,-29.279,1.447,-23.325,-144.28,-298.64,-788.91,-28.47,3.424,-23.663,-68.64,-135.45,-796.13,-24.251,8.568,-20.829,-41.92,69.73,-671.11,-15.444,8.948,-17.561,-19.91,179.85,-500.91,-12.742,4.978,-14.068,-27.66,238.63,-408.74,-10.904,2.018,-13.751,-45.95,229.9,-334.41,-11.876,-1.724,-14.03,-55.63,235.66,-275.18,-10.96,-1.051,-14.989,-69.56,230.97,-162.61,-14.735,-1.19,-15.862,-67.02,251.41,-99.14,-16.697,-2.563,-14.695,-56.5,276.73,-42.24,-19.256,-0.486,-12.115,-44.35,306.19,-26.36,-18.574,-1.268,-7.693,-40.0,346.49,8.23,-14.568,1.785,-4.399,7.49,436.18,66.12,-6.564,0.325,9.745,38.65,501.98,27.22,11.359,-6.171,47.012,33.92,442.4,-27.93,36.591,-4.337,72.913,23.0,278.42,-54.81
0609-4-01-372,Fliffis B,41.739,8.7,93.602,14.95,-145.81,21.62,20.307,9.506,60.95,19.64,-300.73,89.64,-1.402,3.114,23.753,5.91,-409.27,118.13,-19.56,-2.108,-2.678,-46.72,-492.33,121.34,-26.083,-3.498,-12.561,-75.74,-670.99,45.58,-28.818,2.161,4.319,-71.48,-663.2,38.12,-38.895,2.994,1.901,-69.64,-696.15,43.16,-44.123,2.335,-1.93,-57.49,-712.77,29.55,-44.306,2.335,-5.835,-33.92,-710.19,35.91,-42.285,1.074,-6.128,-25.29,-678.28,59.52,-38.133,2.15,-4.657,-32.89,-610.47,64.78,-34.33,0.833,-2.543,-36.94,-514.72,60.07,-30.625,0.356,-5.116,-21.38,-427.65,28.38,-25.812,1.74,-8.232,8.27,-357.74,31.88,-21.319,1.357,-10.739,20.79,-256.04,80.98,-18.508,3.535,-11.194,15.17,-182.65,155.44,-16.49,6.286,-12.149,31.67,-141.78,217.38,-16.206,6.724,-13.478,34.86,-103.75,255.61,-14.696,5.61,-12.232,0.91,-115.78,316.68,-14.523,6.73,-12.01,-42.98,-136.31,374.86,-14.955,4.87,-15.438,-90.2,-124.58,422.86,-14.656,2.432,-20.244,-138.14,-72.93,447.74,-14.388,0.48,-22.675,-181.66,4.99,458.84,-14.191,-0.694,-23.318,-204.35,81.85,451.99,-14.519,-1.945,-23.102,-201.51,155.2,431.36,-14.543,-3.318,-21.706,-174.23,228.84,403.51,-13.823,-4.183,-19.918,-137.92,282.41,357.6,-13.219,-4.518,-18.019,-104.36,311.79,304.62,-12.558,-3.947,-15.777,-76.27,315.73,246.14,-11.576,-2.868,-14.361,-52.3,311.18,202.32,-11.023,-2.9,-14.108,-29.95,305.56,160.07,-10.694,-2.636,-13.959,-17.02,298.62,131.94,-10.582,-1.796,-13.23,-7.36,296.5,113.47,-10.648,-1.115,-11.735,0.82,297.49,93.49,-10.907,-0.305,-10.027,2.41,311.09,64.11,-10.146,0.541,-9.049,-0.76,312.17,35.61,-9.673,1.224,-8.821,0.78,303.41,27.43,-9.118,1.52,-8.872,9.55,277.02,35.54,-8.983,0.542,-8.922,24.18,252.27,40.94,-8.999,0.472,-8.744,26.51,230.08,40.5,-9.103,-0.664,-7.715,22.78,208.19,37.51,-9.196,-0.632,-8.525,21.89,208.07,28.35,-10.207,-0.918,-9.118,25.78,233.5,9.24,-11.135,-0.64,-8.088,20.91,262.79,0.15,-11.851,0.199,-6.98,19.2,297.34,-7.59,-9.485,0.684,-5.397,21.82,332.65,-14.46,-6.931,0.91,-2.176,21.51,377.94,-16.28,-0.121,-0.455,10.475,16.27,405.0,-35.44,14.446,0.598,49.694,13.56,375.86,-17.49,38.396,4.028,86.44,1.45,193.38,-6.04
20191007-1150-FRANKFURT_2-01-214,Fliffis C,26.954,-0.256,80.839,-42.29,-222.38,35.53,18.294,-0.055,64.68,-79.85,-326.38,32.39,0.764,0.365,44.216,-95.88,-465.1,15.78,-18.46,1.552,21.745,-110.75,-583.69,5.86,-32.405,5.35,-2.555,-133.26,-578.29,22.61,-30.957,6.662,-15.017,-121.95,-588.74,24.54,-31.189,4.289,-12.999,-110.4,-632.44,23.85,-32.81,5.023,-8.946,-107.92,-655.17,26.33,-35.255,5.245,-7.505,-114.25,-661.51,30.12,-37.286,4.709,-8.217,-124.12,-660.66,18.35,-40.022,5.025,-9.715,-131.83,-639.78,3.78,-42.228,5.293,-9.841,-123.73,-610.6,7.72,-47.302,4.534,-8.917,-109.34,-593.55,-6.55,-49.586,5.122,-8.969,-92.0,-572.95,-12.91,-49.848,6.314,-10.554,-91.66,-596.8,5.82,-49.486,6.342,-13.441,-88.63,-631.19,-24.61,-49.895,4.123,-12.246,-80.42,-654.4,-65.71,-53.189,4.813,-12.494,-68.46,-643.05,-73.95,-56.756,5.15,-15.673,-43.44,-638.6,-56.82,-58.142,4.654,-18.786,-21.88,-667.59,-34.97,-58.337,3.55,-21.269,-6.92,-684.34,-21.44,-59.107,2.76,-23.842,-3.92,-680.38,-1.4,-57.137,2.572,-26.36,-14.19,-686.33,25.09,-54.773,3.662,-28.553,-32.99,-669.95,56.16,-49.576,5.934,-29.875,-58.44,-650.11,96.18,-43.762,9.202,-30.501,-78.7,-602.68,152.47,-36.083,12.938,-30.931,-82.13,-523.44,245.37,-29.684,13.045,-28.924,-76.39,-395.2,339.02,-21.558,6.86,-27.55,-97.66,-248.11,403.06,-16.272,3.257,-26.312,-145.41,-155.6,444.92,-11.203,4.353,-25.21,-171.53,-53.73,455.37,-5.663,5.966,-24.536,-153.58,-46.37,456.97,-7.558,7.081,-24.34,-112.83,-74.71,476.26,-12.133,5.33,-22.328,-58.2,-33.33,469.82,-11.79,-2.698,-17.871,-26.01,56.11,419.59,-6.305,-6.582,-14.854,-52.47,101.28,388.43,-5.323,-5.111,-15.806,-58.49,90.81,380.04,-7.508,-3.936,-15.866,-33.09,103.92,336.49,-10.631,-4.373,-14.975,-13.02,147.03,284.29,-11.975,-6.212,-14.27,-18.94,190.46,208.26,-12.654,-4.347,-13.826,-31.93,202.48,127.59,-14.562,-3.217,-11.903,-42.32,234.01,77.93,-14.462,-1.143,-7.509,-38.84,285.03,78.97,-12.474,-0.365,-4.151,-8.17,310.86,91.38,-9.718,-1.757,-1.177,33.15,329.24,121.53,-7.139,-4.872,1.631,70.27,358.15,128.06,0.284,-5.955,7.791,95.65,360.35,47.07,9.488,-4.412,22.591,77.42,346.05,10.4,14.44,-3.237,41.069,47.76,340.25,-11.43,21.63,-0.203,62.313,19.3,231.39,-16.76
20191008-1207-FRANKFURT_2-01-91,Barani A,20.622,14.489,89.934,1.61,-87.75,97.01,9.898,7.718,66.994,-19.31,-187.89,108.78,2.188,4.756,37.916,-47.14,-310.2,122.63,-6.12,3.397,6.896,-101.13,-310.11,175.65,-4.001,1.334,-15.54,-129.85,-292.03,88.31,3.41,-1.131,-2.538,-113.3,-278.44,123.98,-3.957,-0.851,-1.631,-105.96,-167.49,103.45,-6.696,2.695,-3.266,-80.16,-135.24,71.39,-7.369,1.723,-4.641,-58.99,-143.3,68.07,-6.993,1.387,-6.058,-53.52,-119.98,52.38,-6.222,1.119,-5.246,-54.78,-118.3,35.78,-5.128,-0.048,-5.581,-55.84,-133.63,27.36,-4.017,0.668,-6.712,-52.73,-142.79,38.18,-2.989,0.961,-6.61,-51.32,-156.98,52.87,-2.77,0.31,-6.404,-55.74,-176.21,65.08,-3.038,0.025,-7.116,-68.83,-186.25,75.76,-3.086,0.261,-7.514,-87.6,-190.44,87.36,-2.916,1.161,-8.565,-106.56,-183.51,110.01,-3.113,1.552,-9.354,-120.89,-165.65,146.59,-2.707,1.088,-10.097,-133.37,-141.24,183.72,-1.928,0.742,-9.483,-145.98,-123.31,210.15,-1.998,0.494,-9.581,-158.07,-102.9,232.51,-2.02,-0.352,-9.607,-166.12,-81.56,244.29,-2.347,-0.67,-9.495,-164.33,-58.77,253.85,-2.558,-1.22,-9.09,-152.44,-31.06,258.14,-2.095,-1.713,-8.694,-142.36,-3.61,256.44,-2.497,-2.927,-8.435,-130.1,11.57,258.78,-2.944,-3.316,-8.069,-121.14,38.97,246.14,-2.966,-2.513,-7.775,-110.52,58.95,251.03,-3.137,-3.199,-7.838,-98.61,88.11,250.81,-2.791,-3.885,-7.536,-90.15,108.72,242.94,-3.059,-3.905,-7.25,-83.27,122.04,229.5,-3.071,-4.462,-7.146,-76.53,132.23,205.93,-3.037,-4.206,-7.319,-69.24,138.95,178.31,-3.515,-3.46,-7.642,-58.86,154.81,152.97,-4.345,-2.499,-6.987,-48.44,174.3,139.58,-4.625,-2.026,-6.489,-39.69,186.18,133.91,-4.949,-2.399,-6.66,-31.77,192.1,126.94,-5.318,-3.024,-6.705,-23.53,197.93,109.12,-5.891,-3.306,-6.727,-20.41,200.55,89.16,-7.239,-3.275,-7.231,-18.94,205.4,68.04,-9.412,-2.774,-6.337,-16.62,242.28,52.86,-10.356,-1.984,-4.061,-4.02,282.54,43.25,-9.795,-1.669,-1.986,14.35,307.45,40.58,-7.603,-0.957,1.009,25.29,310.13,36.75,-2.947,-1.635,4.681,29.45,315.83,21.42,0.109,-1.042,7.079,40.04,367.64,-1.62,1.461,1.068,19.323,58.86,420.95,-37.92,8.174,4.092,49.619,54.72,408.18,-38.71,13.186,4.373,84.787,76.01,206.45,96.29
20191003-1152-FRANKFURT_1-01-28,Cody C,77.54,8.756,74.375,5.77,-78.71,26.7,61.271,6.462,52.58,3.21,-145.45,24.37,38.679,2.519,26.393,15.28,-169.36,2.2,17.485,1.922,-1.634,34.97,-138.08,0.11,1.776,-0.535,-19.974,62.65,-167.75,-3.69,-13.416,-0.776,-18.041,21.23,-144.62,26.37,-3.864,-1.482,-14.76,11.99,-100.51,37.53,-9.472,-1.5,-16.018,-0.69,-67.24,37.41,-4.545,-1.048,-13.193,-13.71,28.38,36.37,-5.189,-0.537,-14.303,-20.99,130.8,35.95,-7.602,-3.73,-20.857,-25.8,291.98,-1.47,-16.138,-2.13,-22.595,-45.9,491.55,1.38,-27.327,0.765,-22.126,-52.2,636.71,17.19,-35.018,-0.494,-18.41,-34.32,690.23,25.94,-38.224,-3.245,-15.333,-28.09,683.59,11.44,-38.238,-5.019,-13.621,-38.11,668.11,3.33,-35.614,-4.398,-13.75,-49.34,653.49,-5.79,-28.31,-2.278,-8.885,-42.21,591.48,-12.36,-18.475,-2.349,-6.917,-50.85,516.38,-23.12,-13.315,-1.566,-6.315,-57.13,485.89,-23.23,-11.514,-1.63,-6.139,-51.13,458.24,-25.64,-7.862,-1.38,-3.909,-48.91,400.89,-14.68,-4.682,-1.634,-6.238,-42.34,343.89,-7.22,-3.774,-1.329,-6.629,-37.93,309.21,-5.36,-3.813,-1.326,-7.131,-33.77,280.82,-1.96,-3.47,-1.372,-6.898,-33.94,262.21,-0.91,-2.562,-1.601,-7.195,-33.35,243.48,-4.16,-2.164,-1.403,-7.656,-32.33,226.68,-5.41,-2.152,-1.352,-7.524,-31.74,211.91,-6.18,-2.622,-1.281,-7.031,-29.03,199.49,-9.17,-2.959,-1.565,-5.946,-28.78,184.75,-15.46,-2.958,-1.663,-5.774,-30.49,173.23,-18.45,-2.869,-1.17,-6.069,-27.88,163.85,-16.63,-2.926,-1.252,-6.32,-23.39,156.77,-14.92,-2.857,-1.626,-6.209,-22.59,148.92,-11.24,-2.849,-1.038,-5.485,-18.17,142.74,-2.77,-2.826,-1.043,-6.57,-15.3,135.31,8.31,-3.613,-1.665,-7.962,-18.01,133.87,6.84,-4.924,-1.737,-8.654,-22.0,150.96,1.76,-5.651,-1.515,-7.735,-24.09,161.11,8.27,-6.499,-1.28,-7.347,-24.36,164.82,9.96,-6.861,-1.106,-5.568,-26.7,171.27,5.73,-6.448,-1.82,-3.49,-30.66,176.09,12.1,-5.912,-1.893,-2.715,-31.99,202.73,7.08,-3.104,-2.588,0.879,-29.82,221.95,-13.43,-0.629,-2.47,2.276,-45.19,241.32,-21.08,3.628,-2.055,8.366,-59.55,277.51,-48.76,9.671,0.048,27.437,-57.2,271.74,-41.67,16.344,2.562,47.659,-49.1,213.24,-38.89,24.311,4.844,69.027,-35.1,150.44,-4.12
0609-1-01-167,Von Bauch in Stand,77.024,-0.869,60.829,7.33,-34.64,6.23,60.2,0.271,42.193,18.21,-23.03,0.95,39.505,1.642,21.487,1.58,-34.45,8.62,17.683,1.763,3.383,2.56,-55.07,-2.31,8.852,0.611,-2.026,28.82,-100.3,-34.73,0.452,-1.341,-1.414,26.5,-57.86,-14.13,-5.6,-1.597,-0.041,8.29,-3.5,18.63,-3.123,1.604,-1.678,-18.56,14.43,3.58,-0.343,0.597,-1.519,-17.58,27.2,5.36,1.222,-0.284,-1.818,-17.47,13.67,3.96,-0.617,0.507,-0.253,-11.43,12.85,13.52,-1.161,-0.229,0.502,-12.08,11.42,11.78,-0.55,-0.561,-1.189,-20.84,10.19,-0.54,-1.135,-0.821,-0.272,-22.94,10.67,-3.6,-0.625,-0.051,-0.278,-20.12,4.81,3.7,0.11,0.224,-1.291,-15.73,-0.2,3.1,0.352,-0.204,-1.568,-12.34,4.49,1.5,0.403,0.096,-0.563,-4.69,10.33,5.0,0.227,0.237,0.386,2.62,11.63,10.26,0.213,0.004,0.479,6.42,11.7,13.03,0.262,-0.576,0.644,6.14,14.0,18.3,-0.086,-1.006,0.549,4.45,16.8,20.02,-0.195,-0.73,-0.123,5.62,19.53,20.99,-0.147,-0.412,-0.392,11.49,20.95,18.44,0.136,0.028,-0.629,16.07,23.31,19.46,0.208,-0.008,-0.977,19.71,24.81,20.72,0.202,-0.068,-1.048,21.06,27.19,19.56,0.489,-0.297,-0.949,18.68,29.03,16.45,0.459,-0.328,-0.894,14.11,30.47,13.9,0.286,-0.095,-0.655,9.53,31.75,10.44,0.059,-0.458,-0.474,9.16,29.13,1.74,0.08,-0.78,-0.879,5.52,28.56,-10.23,0.554,-0.167,-1.814,6.78,36.79,-18.56,0.439,-0.042,-0.614,14.64,38.08,-19.76,-0.037,-0.515,0.191,17.78,35.85,-18.35,-0.404,-0.587,0.059,12.35,28.7,-16.45,-0.445,-0.062,-0.741,9.87,24.96,-14.71,-0.79,-0.359,-0.759,12.27,21.4,-16.85,-1.412,-0.245,-0.471,9.66,16.54,-16.05,-1.867,-0.176,-0.483,4.44,15.32,-7.72,-2.233,0.241,-0.169,0.33,13.66,0.93,-2.894,0.275,0.631,-1.26,10.88,10.48,-3.429,-0.201,1.345,-4.19,1.71,15.07,-3.784,-0.178,1.247,-7.47,-5.57,30.42,-2.552,0.103,1.617,-6.86,4.07,48.56,5.017,-1.85,3.362,-1.92,24.31,23.46,16.973,-0.889,10.363,10.08,45.34,26.2,22.489,-0.527,20.931,16.87,151.2,8.23,25.587,-1.892,41.003,17.51,205.8,-8.72,30.836,-4.354,71.107,28.73,212.73,-24.98
0609-1-01-900,Bauchsprung,11.869,2.973,75.998,21.92,68.45,30.7,6.395,1.422,60.921,17.52,39.52,14.52,1.552,-1.058,40.152,11.0,18.82,-13.45,-0.563,-1.277,22.12,-9.65,4.36,-21.28,-0.112,-0.168,8.632,-16.14,-16.41,-12.61,0.854,0.29,0.222,-4.32,-18.22,-2.57,2.938,0.206,0.321,2.55,-57.95,4.29,2.149,0.515,-1.11,3.09,-22.96,12.6,0.33,0.83,-0.558,-4.62,-9.6,22.01,-0.937,0.852,0.343,-22.85,-19.76,15.47,-1.551,-0.26,0.54,-26.26,-54.35,2.85,-1.349,-0.604,0.085,-24.44,-78.79,-3.78,-1.131,-0.543,0.055,-18.34,-87.27,-6.58,-0.935,-0.382,-0.216,-16.07,-95.57,-6.53,-0.848,-0.277,-0.425,-15.69,-106.39,-6.81,-0.836,-0.158,-0.632,-17.29,-114.15,-9.61,-0.942,-0.027,-0.952,-15.61,-116.86,-11.5,-0.889,-0.251,-0.802,-13.2,-114.55,-8.01,-1.067,0.023,-1.005,-11.72,-116.0,-5.95,-0.851,-0.314,-1.292,-8.5,-115.79,-11.45,-0.852,-0.305,-1.24,-9.54,-110.89,-6.45,-0.904,-0.314,-0.148,-6.62,-107.04,-5.04,-0.992,-0.321,0.778,-4.16,-108.72,-14.93,-1.179,-0.229,0.52,2.61,-109.94,-21.55,-1.286,-0.007,0.133,5.11,-105.8,-24.91,-0.665,0.058,-0.262,9.64,-93.04,-27.25,0.255,0.009,-0.39,9.58,-80.63,-19.19,0.876,0.134,0.033,9.34,-73.04,-13.16,1.343,0.092,0.107,9.87,-68.63,-8.16,1.396,0.194,-0.492,9.95,-55.78,-7.3,1.144,-0.024,-0.382,8.44,-38.65,-8.23,1.155,-0.6,-0.78,-0.02,-19.31,1.16,1.354,-0.135,-0.57,-6.13,-6.26,3.55,1.18,0.286,-0.035,-6.32,-4.97,3.85,0.968,0.538,-0.173,-1.18,-16.27,4.6,0.412,0.332,-0.675,11.39,-26.53,0.08,-0.75,-0.686,-1.935,22.28,-19.58,3.05,-1.193,-0.74,-2.254,26.78,-17.65,-8.12,-0.367,-0.61,-2.325,23.03,-19.24,3.72,-1.091,-0.655,-2.003,10.5,-6.09,1.39,-0.932,-0.898,-1.853,1.62,7.36,-1.44,-1.72,-0.879,-1.391,-7.17,34.2,-7.53,-1.295,-0.802,-1.067,-12.5,66.13,-16.03,-0.109,-1.003,-0.48,-10.98,97.82,-7.1,1.092,-0.662,0.093,-4.84,163.83,2.37,8.365,0.932,-0.227,-4.34,243.44,10.05,13.666,1.059,-0.605,-3.26,201.41,5.04,29.276,0.979,24.244,-10.33,47.47,5.97,44.755,-1.969,40.151,-1.34,73.74,-46.21,62.225,2.757,60.112,-55.29,58.38,-17.66
0827-BK2-02-22,Salto C,24.899,6.13,86.675,17.72,130.09,-45.24,13.231,3.865,65.972,30.72,163.65,-52.07,5.326,4.91,41.641,23.62,126.3,-35.92,2.734,3.292,17.674,25.49,46.77,-26.69,0.059,-0.901,-0.002,27.63,5.76,-31.48,-4.152,-0.888,-7.722,-1.27,-26.54,-9.34,-5.0,0.094,-3.921,-1.68,-57.88,-15.44,-6.597,0.464,-3.682,-14.4,-70.6,-0.02,-5.91,0.034,-7.499,-30.07,-52.49,5.86,-3.885,0.227,-8.133,-29.85,-13.49,-5.24,0.775,-0.335,-7.086,-22.66,28.89,-52.19,1.417,-0.839,-9.827,-24.16,164.81,-88.23,-9.411,-0.561,-15.065,-13.92,367.38,-89.57,-19.227,-1.42,-14.797,-17.84,540.85,-88.94,-21.373,0.003,-11.158,-25.1,615.02,-94.38,-19.831,0.462,-11.191,-25.12,610.14,-79.02,-20.374,0.348,-10.605,-20.09,606.27,-40.68,-21.86,0.32,-9.134,-28.21,594.81,-12.61,-22.632,-0.103,-9.644,-9.2,562.54,5.41,-22.04,-0.607,-10.063,-1.01,532.45,-10.41,-19.867,1.471,-6.397,13.33,463.75,-5.53,-13.313,-0.751,-2.494,20.6,371.2,-31.71,-8.649,1.656,3.045,8.42,319.51,-18.72,-2.776,1.552,2.447,15.78,226.58,-12.34,-1.272,0.442,-1.378,13.27,191.4,-12.1,-0.985,0.299,-0.354,13.88,160.69,-14.96,-1.169,0.439,-1.002,13.62,137.4,-18.26,-1.562,0.138,-1.61,13.61,126.73,-26.65,-1.882,0.09,-1.346,11.24,119.46,-32.99,-1.453,0.589,-1.768,14.0,111.09,-34.08,-1.177,0.774,-2.066,21.17,107.09,-28.4,-0.88,0.604,-1.966,19.7,104.81,-22.29,-0.597,0.443,-2.486,17.88,105.45,-19.83,-0.509,0.29,-2.326,12.8,107.5,-22.26,-0.288,0.473,-2.29,7.78,104.77,-26.91,-0.477,0.611,-2.793,8.47,101.28,-31.76,-0.576,0.821,-2.451,8.68,98.29,-38.38,-0.489,0.883,-3.033,11.4,96.45,-42.84,-1.176,0.336,-2.786,10.47,93.66,-42.28,-1.658,-0.066,-2.611,6.11,86.62,-36.87,-2.315,0.032,-2.393,3.33,76.17,-36.14,-3.101,-0.6,-2.419,5.05,74.89,-37.64,-3.928,0.13,-1.238,4.29,66.3,-24.04,-5.065,0.134,-0.124,-0.18,63.0,-10.95,-4.937,0.283,1.385,-9.55,76.2,5.62,-1.95,0.982,3.515,-25.46,120.59,17.98,2.577,1.012,7.238,-21.32,178.52,19.5,8.151,1.046,24.855,-2.17,181.3,5.5,19.09,1.564,55.124,10.68,96.33,-3.52,30.47,0.001,81.883,9.14,67.63,-5.11
20191007-1524-FRANKFURT_1-01-114,Doppelsalto B,21.363,15.895,86.03,-33.34,236.59,-104.51,12.294,9.546,64.194,-27.48,279.89,-77.01,6.28,6.364,39.235,-2.62,309.28,-75.93,2.401,3.16,17.405,25.59,242.88,-66.7,2.102,1.416,2.085,16.45,131.2,-38.79,3.756,-1.376,-7.371,8.27,28.06,5.05,-0.006,-3.938,-8.345,12.8,13.49,41.05,-3.86,-2.38,-7.232,-0.94,19.2,22.99,-5.901,-0.828,-7.739,-14.99,7.24,-3.67,-6.202,-0.993,-8.847,-23.49,-0.36,-24.41,-6.591,-1.13,-9.846,-25.56,27.68,15.79,-6.294,-0.289,-9.147,-28.34,82.76,-1.51,-3.822,0.023,-8.59,-21.91,144.68,-27.6,-3.897,-0.506,-8.84,-5.09,239.34,-29.9,-5.309,-0.53,-6.753,9.97,337.84,-27.42,-4.748,0.051,-7.5,19.96,399.12,-20.12,-5.938,0.221,-9.158,31.03,455.75,13.23,-7.7,-0.299,-9.123,38.24,484.63,19.32,-9.451,-0.021,-10.523,44.01,482.07,10.36,-12.4,0.28,-12.851,53.4,469.36,9.71,-15.995,-0.23,-15.225,69.02,464.16,6.75,-18.873,-0.086,-17.412,82.76,459.64,-14.67,-17.803,2.143,-11.144,97.67,422.99,-55.35,-9.443,0.921,6.34,82.73,329.31,-70.03,-4.295,-2.478,1.112,48.02,256.31,-21.37,-4.093,-1.608,-4.518,40.72,235.79,-27.66,-4.052,-0.287,-1.924,28.16,220.25,-39.62,-2.265,-0.136,-0.779,15.69,183.46,-30.67,-1.028,-0.705,-3.12,8.61,152.89,-21.46,-0.943,-1.488,-5.66,3.83,148.38,-20.63,-1.847,-1.435,-5.153,5.13,160.59,-24.22,-2.164,-1.131,-3.33,10.69,157.91,-14.45,-2.16,-1.039,-2.554,13.84,139.5,-12.28,-2.015,-1.214,-3.645,9.1,117.87,-23.57,-2.026,-1.268,-4.612,5.1,113.12,-32.02,-2.423,-0.904,-4.795,1.62,116.13,-29.67,-2.74,-0.76,-4.314,-1.05,120.27,-22.38,-2.864,-0.728,-3.907,-1.81,119.0,-11.78,-3.495,-0.931,-3.91,2.22,116.24,-5.93,-3.988,-0.805,-4.289,6.9,117.47,-5.29,-3.921,-0.498,-4.382,11.34,122.15,-6.15,-4.449,-0.585,-3.963,13.13,129.23,-10.73,-5.987,-0.784,-3.782,8.38,139.83,-0.63,-6.153,0.031,-1.325,5.31,145.29,15.8,-2.145,1.052,1.912,21.31,147.87,0.37,4.187,-0.182,5.098,35.53,165.25,-28.24,6.91,-1.047,7.697,39.09,262.1,-7.19,8.712,1.579,17.568,52.3,322.11,2.29,20.865,6.284,46.222,73.76,252.29,-42.68,34.787,12.404,80.602,100.25,74.71,-9.96
0827-BK1-01-81,Salto B,36.259,-9.258,85.456,0.69,104.34,-5.76,22.142,-4.812,57.638,16.53,151.26,-3.22,10.205,-1.546,30.859,28.13,148.31,-21.3,2.78,0.255,12.45,27.05,64.97,-20.4,-4.521,0.461,2.149,13.75,-19.64,-7.6,-8.144,-1.513,-1.91,4.9,-46.82,2.12,-9.055,-1.036,-3.285,7.43,-99.04,22.18,-10.258,1.304,-4.845,12.84,-162.03,22.23,-8.063,0.116,-6.73,13.33,-127.24,15.5,-3.035,-0.261,-2.883,2.67,-50.3,3.89,1.338,-0.675,-0.505,-15.1,14.25,-8.56,4.126,0.053,-0.941,-30.52,93.95,-5.79,5.527,0.583,-6.145,-38.53,205.08,10.29,3.807,1.399,-14.284,-37.28,357.18,24.34,-3.374,1.05,-14.91,-32.87,493.11,47.11,-9.759,0.961,-17.67,-19.67,548.42,63.87,-13.843,-0.026,-17.923,-14.0,547.37,60.2,-16.877,0.469,-19.451,-9.69,555.51,47.02,-22.746,0.706,-23.78,-14.33,591.06,39.23,-34.36,2.699,-24.734,-18.68,627.0,86.34,-36.351,3.31,-8.343,-14.75,561.71,83.96,-19.664,-1.999,7.757,-6.13,413.5,61.24,-10.039,-1.413,3.896,-2.42,308.94,65.35,-5.822,-0.029,2.865,-6.31,246.17,56.13,-3.035,0.199,0.323,-4.95,190.01,45.31,-1.102,-0.397,-3.096,2.3,153.72,35.79,-0.857,-0.231,-3.659,4.89,142.79,33.26,-1.308,0.519,-3.618,10.54,140.32,33.33,-1.864,0.52,-2.951,22.73,139.21,37.91,-2.181,0.495,-3.015,31.17,143.54,43.03,-2.394,0.7,-2.57,39.65,149.48,47.57,-1.851,0.054,-2.381,47.78,142.94,39.0,-1.621,-0.066,-2.608,46.93,136.84,30.82,-1.709,0.06,-2.591,43.79,130.64,24.47,-1.684,0.333,-2.841,40.45,124.21,19.88,-1.667,0.699,-2.381,37.99,114.2,20.52,-1.75,0.661,-2.584,39.29,102.71,18.33,-2.037,0.262,-2.84,34.52,93.6,13.65,-2.321,0.414,-2.609,28.9,87.46,10.24,-2.656,0.51,-2.453,30.56,80.93,0.59,-3.133,0.438,-2.307,30.68,74.58,-3.42,-4.358,0.452,-1.468,28.09,69.45,-4.64,-5.014,0.646,-0.217,27.85,65.25,-3.62,-5.799,0.147,1.292,25.76,71.92,-7.69,-4.732,0.448,1.922,20.27,92.19,-12.75,-0.362,1.086,2.5,22.44,112.84,-9.29,9.281,1.42,4.383,36.21,116.46,26.08,19.046,-1.082,15.151,49.34,204.17,24.76,26.498,-3.405,43.655,37.6,232.92,-6.32,41.4,-5.868,76.732,15.76,160.9,-33.56
0609-1-01-594,Salto C,27.89,2.196,85.715,35.09,148.9,8.44,14.914,-0.072,63.723,34.12,163.86,-8.61,7.164,-0.89,37.978,29.96,130.61,-25.78,2.619,-1.075,15.698,9.7,76.55,-15.18,-0.999,1.306,-1.458,3.45,63.0,2.28,-3.498,0.705,-4.794,6.03,-36.66,-42.56,-3.061,-1.352,-5.288,5.24,-47.68,-37.77,-5.9,0.536,-5.771,-3.54,-43.01,-4.49,-5.853,0.422,-7.223,-9.38,-48.88,-16.11,-5.417,-1.161,-8.293,-6.35,3.87,-46.36,-1.019,-0.461,-7.275,-8.01,87.57,-67.38,2.651,-0.1,-9.847,-23.05,269.44,-58.72,-2.539,-1.106,-12.818,-23.87,485.1,-11.09,-7.36,0.049,-14.099,-14.01,591.12,1.32,-11.392,0.527,-14.322,11.56,620.74,3.6,-14.0,-0.848,-12.953,18.35,608.59,-10.43,-17.222,1.501,-14.907,23.03,537.4,14.63,-19.642,0.019,-13.753,28.52,492.06,-16.68,-18.814,-0.966,-14.387,9.4,478.67,-25.86,-15.725,-0.348,-10.212,10.67,448.71,-18.4,-10.685,-0.202,-5.994,16.66,417.28,-28.11,-7.223,1.08,2.768,22.25,362.64,-5.93,-3.925,0.72,1.294,31.88,273.16,-0.16,-2.741,-0.669,-0.953,30.33,232.65,-8.76,-1.585,-0.594,-1.062,11.05,203.49,-20.36,-0.589,-0.386,-0.85,7.58,172.07,-26.59,0.198,-0.776,-2.827,0.47,146.62,-24.16,-0.49,0.412,-2.12,5.8,133.45,-15.18,-1.118,-0.002,-1.42,11.76,116.81,-6.57,-0.955,-0.466,-1.64,8.78,98.34,-7.46,-0.782,-0.377,-2.527,10.53,83.06,-8.37,-0.734,0.052,-2.8,9.35,71.4,-9.54,-0.384,-0.162,-2.733,5.8,56.98,-13.07,-0.139,0.036,-3.111,7.53,39.37,-13.17,-0.09,-0.727,-3.14,2.46,33.82,-12.9,-0.165,-0.446,-2.639,1.52,38.31,-2.72,-0.377,-0.091,-3.226,2.51,48.4,-0.94,-0.058,-0.342,-4.429,0.65,67.12,-2.78,-0.636,-0.713,-4.757,8.21,96.38,-14.84,-1.063,-1.255,-3.748,8.75,102.98,-27.84,-1.496,-1.466,-4.175,9.75,121.88,-29.45,-2.223,-0.057,-3.345,3.03,120.87,-29.56,-3.155,-0.692,-3.624,-16.24,121.09,-10.94,-4.786,0.385,-2.027,-31.58,120.25,32.1,-6.644,1.387,-0.126,-19.42,151.65,51.06,-2.72,-0.315,2.388,-1.58,182.81,29.77,3.782,-0.731,5.847,-7.12,231.48,21.39,6.413,-1.289,19.441,1.92,326.12,0.11,15.839,-1.663,52.072,15.98,258.04,-13.71,30.111,-0.322,82.068,28.31,161.86,-6.03
0827-BK2-01-57,Salto B,24.917,1.867,91.991,23.85,161.88,16.37,12.66,2.262,65.962,36.96,190.79,15.54,7.798,-0.17,37.478,30.04,156.77,3.41,5.39,-0.607,13.45,7.12,60.9,9.29,-1.931,1.841,-0.768,5.73,35.02,-10.41,-3.169,0.872,4.496,5.27,-20.5,-24.73,-6.506,-0.379,-0.623,-7.14,-133.65,-11.76,-10.746,0.781,-8.051,-13.93,-205.98,9.04,-12.135,0.45,-7.419,-10.74,-212.7,11.8,-9.781,0.206,-4.486,-1.18,-181.52,-2.16,-1.057,-0.155,-2.021,-3.06,-180.43,-11.72,6.998,0.829,-2.148,-15.58,-87.08,-7.25,5.837,0.954,-9.932,-6.81,137.69,6.63,-1.185,-0.798,-13.679,2.17,338.35,-6.16,-7.516,0.276,-13.038,0.0,490.64,-52.4,-12.744,1.005,-11.312,-11.18,582.22,-53.93,-16.082,1.912,-11.113,-5.07,611.58,-6.79,-17.976,1.15,-11.259,10.55,612.34,-1.62,-18.886,1.804,-13.175,12.53,588.79,-5.9,-21.121,1.817,-15.598,11.57,580.33,-10.79,-20.84,0.889,-14.672,0.74,560.3,10.6,-18.027,0.841,-9.939,-5.36,505.93,21.75,-15.214,0.711,-0.518,-8.55,424.98,18.01,-11.399,1.957,4.948,-2.16,326.96,16.06,-5.956,-0.268,3.792,-1.35,214.85,0.96,-2.518,-0.14,0.429,-13.13,144.69,-16.63,-0.092,1.519,-1.601,-6.99,109.38,-24.62,0.779,1.41,-3.695,3.68,98.89,-16.24,0.132,0.61,-3.682,7.66,98.47,-13.37,-0.762,0.442,-3.154,5.86,98.24,-13.84,-1.336,1.055,-2.835,4.88,96.17,-12.73,-1.587,0.585,-2.652,2.45,97.56,-17.67,-1.681,0.917,-2.155,-0.98,97.43,-19.56,-1.92,0.532,-2.047,-1.15,89.1,-18.84,-1.877,0.858,-2.463,-6.41,84.0,-20.37,-1.583,0.772,-2.58,-8.26,85.65,-20.79,-1.695,1.1,-2.603,-6.87,84.66,-10.8,-1.645,0.73,-2.401,-7.78,81.67,1.4,-1.776,0.432,-2.603,-7.47,80.75,9.91,-2.009,0.556,-2.441,-3.11,81.35,13.51,-1.665,0.814,-3.129,0.75,93.63,-0.62,-1.955,0.086,-3.507,5.19,102.29,-9.5,-3.008,0.004,-3.525,0.96,111.67,-23.3,-4.008,0.486,-3.823,-5.94,118.75,-26.8,-5.083,1.282,-3.247,-4.8,132.25,-18.75,-5.045,0.709,-0.932,-2.24,158.49,-18.53,-2.858,0.126,4.044,-5.92,204.83,-20.37,3.899,-0.119,21.934,-12.17,242.29,-11.65,16.658,-0.685,56.023,-10.98,190.4,-0.95,34.794,-1.801,86.004,-9.31,89.37,-0.54
0609-1-01-631,Bauchsprung,15.617,-3.389,71.695,-0.47,87.46,26.48,8.981,-2.037,57.653,5.21,67.21,17.35,3.606,-0.722,39.87,0.85,26.6,8.49,0.408,-0.031,20.555,-5.01,-18.81,6.79,-0.797,0.301,5.624,-7.09,-26.62,15.23,0.201,-1.165,-1.319,-6.53,-33.4,1.9,2.778,-0.113,0.03,-12.48,-55.54,9.29,1.27,0.163,-0.942,-12.82,-34.68,4.28,-0.287,0.302,-1.155,-12.74,-24.41,13.73,-0.764,0.44,0.221,-11.59,-22.72,10.94,-0.662,-0.334,0.423,-9.12,-35.76,6.94,-0.495,0.04,0.479,-10.68,-45.36,2.84,-0.089,0.202,0.444,-7.99,-61.17,1.96,-0.128,0.407,0.304,-12.05,-75.46,6.65,-0.332,0.525,0.289,-13.66,-89.31,-3.5,-0.409,-0.241,-0.247,-13.82,-101.43,-14.61,-0.629,-0.205,-0.408,-15.14,-102.13,-19.03,-0.666,-0.376,-0.282,-13.43,-98.09,-20.7,-0.893,-0.397,-0.032,-10.96,-99.11,-16.36,-1.061,-0.152,-0.022,-8.62,-100.41,-8.95,-0.976,-0.02,0.165,-3.81,-99.22,-2.26,-1.101,-0.038,0.006,-0.76,-101.98,11.21,-0.949,0.063,-0.497,3.29,-92.54,17.47,-0.719,-0.094,-0.227,11.29,-80.68,16.03,-0.838,0.203,-0.227,13.06,-79.17,9.48,-0.707,0.216,-0.355,12.18,-81.53,0.56,-0.433,0.067,-0.555,10.04,-75.87,1.5,0.074,-0.367,-0.4,8.2,-73.77,-3.8,0.215,-0.845,-0.826,5.55,-69.54,-10.55,0.122,-0.609,-1.126,3.57,-58.06,-14.53,0.249,-0.505,-0.746,0.57,-50.58,-18.8,0.106,-0.283,-0.554,-0.21,-46.91,-18.22,-0.193,0.245,-0.833,0.78,-41.09,-19.58,0.491,0.227,-0.827,9.32,-46.82,-20.61,0.626,-0.096,-0.97,11.26,-44.41,-2.0,1.341,-1.101,-0.911,0.81,-36.65,9.25,1.278,-0.574,-0.028,1.93,-45.86,14.59,-0.116,-1.952,0.023,3.36,-48.68,0.13,-1.079,-1.021,-1.96,-8.92,-41.17,-6.08,-1.273,-0.116,-2.598,-18.38,-28.43,-5.15,-2.842,-0.013,-2.646,-31.82,4.85,-12.7,-1.26,-0.253,-2.057,-35.02,32.56,-2.34,-1.346,-0.017,-2.016,-32.85,66.97,6.84,-1.369,-1.179,-1.877,-24.51,87.39,7.6,-1.557,0.113,-0.337,-29.01,150.2,3.58,3.927,1.583,4.254,-22.53,252.94,-48.44,22.157,2.648,10.977,4.02,271.9,-142.27,34.125,3.522,24.365,16.74,90.41,-131.97,47.852,7.755,44.339,5.14,23.02,-97.02,62.207,10.646,59.031,-20.06,27.75,-69.1
0609-1-01-618,Doppelsalto B,28.06,9.294,82.26,43.85,223.94,-71.71,13.126,9.304,59.711,27.13,317.36,-99.5,2.365,3.737,33.919,-11.54,347.18,-102.15,-1.804,-0.587,8.357,-50.01,259.62,-78.09,-1.6,1.193,-5.44,-54.07,175.86,-50.38,-3.17,0.514,-3.963,-28.26,173.49,-35.86,-3.731,-0.141,-0.933,-9.96,101.34,-3.58,-6.128,-0.122,-11.26,-8.84,49.71,23.74,-9.157,-5.286,-17.751,-9.63,-32.32,-9.21,-11.558,1.569,-13.614,-26.31,-69.8,-4.08,-12.956,1.143,-11.146,-25.84,-53.15,-43.76,-16.604,-0.465,-8.245,-35.71,96.25,-41.52,-14.016,-2.34,-3.34,-62.36,296.87,-21.28,-17.53,-1.203,-2.906,-84.04,398.81,18.92,-24.513,-2.256,-4.027,-68.34,536.82,58.33,-30.685,-2.554,-2.11,-43.7,630.01,33.11,-33.848,-5.33,-2.197,-53.75,678.67,-21.66,-35.959,-5.096,-3.035,-78.13,692.34,-22.77,-36.229,-5.55,-3.804,-83.46,691.29,10.18,-35.393,-5.689,-5.276,-85.38,674.8,25.32,-35.227,-5.034,-7.812,-75.72,671.12,13.69,-34.86,-4.59,-9.761,-71.5,681.35,14.76,-34.432,-3.617,-13.298,-63.1,730.21,34.73,-33.848,-3.876,-21.703,-31.28,791.67,26.58,-35.212,0.227,-27.141,6.79,817.08,12.62,-35.286,-3.461,-28.866,20.16,843.78,0.71,-37.113,-1.325,-32.078,28.73,799.47,-13.12,-35.947,0.208,-29.614,34.43,802.73,-30.5,-31.704,-0.342,-32.347,49.76,704.36,-21.62,-35.918,1.793,-31.667,62.48,619.24,3.64,-34.216,0.386,-23.676,82.77,634.92,-24.51,-24.959,0.121,-12.82,56.3,603.8,-47.65,-15.079,-0.115,-6.67,53.83,572.08,-72.25,-9.52,0.763,-6.46,35.86,427.83,-60.2,-6.576,-0.097,-6.913,28.82,342.82,-46.56,-4.008,-0.63,-8.715,23.92,264.65,-28.67,-2.68,-0.75,-10.209,28.16,207.3,-33.72,-3.806,-1.41,-11.49,30.86,178.73,-40.26,-4.221,-1.058,-12.271,19.1,174.17,-60.73,-4.932,-0.864,-11.92,4.28,179.13,-68.31,-5.645,-0.746,-11.088,-8.36,180.08,-59.58,-6.188,-0.747,-11.553,-21.21,191.69,-33.71,-7.329,-1.175,-12.482,-21.34,216.89,-4.75,-9.329,-1.381,-11.583,-21.06,247.65,1.17,-10.02,-1.532,-9.778,-22.8,274.86,2.6,-9.678,-2.43,-6.792,-22.98,296.54,-4.75,-3.463,-1.61,-3.492,-12.07,296.15,-20.79,5.122,-1.969,17.862,14.97,304.41,-31.33,14.539,2.196,44.479,7.52,284.68,-7.96,28.88,8.328,74.349,28.37,186.08,30.5
0827-BK2-01-98,Salto A,22.967,-3.76,90.903,2.62,176.18,15.17,11.499,-3.412,66.003,9.8,215.93,7.32,5.635,-3.643,37.865,16.31,206.87,-1.59,3.259,-0.718,13.601,18.09,134.51,4.29,0.343,2.88,-2.798,36.61,110.25,15.07,-0.687,1.248,-3.252,26.86,61.77,15.0,1.895,0.723,2.069,12.56,53.85,5.12,1.977,-1.314,-5.555,6.63,31.24,-27.24,0.454,-0.612,-7.754,12.73,85.35,-17.58,-0.767,1.461,-5.82,16.67,115.36,-13.98,-2.075,1.213,-6.664,19.32,136.34,-27.03,-3.529,0.103,-6.831,10.24,161.78,-40.02,-4.466,0.71,-6.399,12.0,188.77,-38.49,-4.711,1.093,-5.56,19.74,212.97,-38.0,-4.407,-0.086,-5.339,17.05,232.89,-32.71,-4.649,1.406,-4.934,0.61,243.89,-37.35,-4.509,1.522,-3.816,-32.3,237.57,-25.67,-3.574,0.823,-3.71,-27.5,228.47,-11.27,-3.089,-0.038,-4.299,-16.28,221.62,-2.21,-2.923,-0.254,-4.5,-7.22,216.79,-9.5,-2.609,0.59,-4.923,-8.55,213.06,-9.47,-3.081,1.771,-5.03,-9.65,214.98,2.28,-3.523,1.824,-4.56,-6.65,218.39,14.25,-3.488,1.01,-4.585,-1.77,215.69,13.02,-3.125,0.892,-4.758,-6.88,216.14,6.13,-3.166,1.353,-4.477,-12.52,213.06,1.66,-2.893,1.158,-4.743,-9.04,208.35,2.32,-2.827,0.713,-4.723,-0.3,206.29,1.17,-2.845,0.737,-4.323,10.15,196.72,-2.35,-2.721,0.999,-4.415,19.45,184.69,-5.97,-2.783,1.14,-4.342,22.93,176.97,-10.22,-2.65,0.973,-4.468,20.82,171.68,-13.6,-2.684,0.767,-4.445,16.41,168.62,-17.86,-2.801,0.572,-4.499,9.84,162.05,-21.0,-2.819,0.836,-4.286,1.77,159.96,-21.83,-2.738,1.065,-4.222,-4.04,159.51,-20.09,-2.763,0.98,-3.874,-10.43,152.49,-16.71,-2.691,0.754,-4.216,-14.84,145.95,-12.97,-2.927,0.332,-4.261,-14.19,143.64,-11.4,-3.091,0.558,-4.046,-7.99,139.89,-11.4,-3.336,0.809,-4.048,-2.87,135.95,-4.61,-4.304,0.378,-4.298,-0.31,137.28,-3.68,-4.442,-0.41,-4.636,-3.71,128.88,-12.3,-5.567,0.762,-4.204,-7.04,116.82,-2.77,-6.105,1.255,-3.699,-8.05,127.19,5.21,-6.235,0.479,-1.516,-8.53,150.32,5.64,-5.29,-0.486,4.032,-11.8,197.06,-2.66,1.626,-1.177,25.331,-12.4,238.38,-17.4,13.836,-1.573,58.057,-8.67,196.25,-14.74,31.829,0.424,88.258,-3.27,89.34,2.42
20191008-1207-FRANKFURT_2-01-60,Salto A,14.445,24.344,81.871,10.74,155.82,-126.57,6.644,17.888,55.45,0.61,218.7,-118.77,0.928,9.548,27.675,-3.18,250.32,-89.58,-1.898,2.353,6.97,-8.94,247.89,-47.6,-4.934,-0.719,-6.178,-7.96,200.19,-48.13,-2.411,-0.878,-3.677,7.3,141.33,-64.14,0.465,-1.391,1.151,10.19,133.29,-21.07,-0.82,-1.507,0.381,3.97,100.78,-7.12,1.018,-0.452,1.592,-17.79,42.4,-6.75,1.529,-2.142,-5.074,-22.2,-5.61,-0.59,1.169,-3.349,-10.518,-16.64,-1.31,3.57,0.739,-2.029,-9.791,-10.09,37.97,-8.2,-0.582,-2.188,-9.15,-12.85,71.91,-6.49,-2.817,-1.403,-9.453,-9.34,126.34,0.27,-5.256,-0.869,-8.716,7.28,191.1,5.41,-5.723,-0.938,-8.982,13.2,235.95,12.77,-7.414,-0.209,-8.994,14.35,273.0,26.83,-7.442,-1.365,-7.5,20.16,315.22,-10.8,-7.951,-1.734,-6.856,25.62,340.8,-51.36,-8.015,-1.401,-5.184,19.68,341.55,-63.09,-7.326,-1.426,-3.987,14.55,307.84,-47.45,-5.893,-1.733,-3.679,13.56,275.01,-53.31,-4.755,-1.115,-3.345,18.15,253.73,-55.09,-4.543,0.03,-3.572,25.71,235.87,-50.43,-3.853,0.366,-3.84,27.3,219.65,-46.63,-3.332,-0.139,-3.393,25.99,201.29,-43.46,-3.329,-0.378,-3.798,27.4,183.36,-45.21,-3.479,-0.576,-3.8,32.47,172.01,-40.63,-3.391,-0.959,-3.676,32.68,166.75,-38.16,-2.703,-1.127,-4.165,24.92,160.67,-37.96,-2.303,-1.795,-5.153,12.21,161.2,-42.14,-2.018,-2.274,-5.356,4.39,163.91,-50.98,-2.36,-2.114,-5.109,1.21,163.84,-62.98,-3.138,-1.545,-5.146,-0.42,151.68,-61.03,-3.869,-1.126,-5.163,-3.93,151.8,-54.83,-4.121,-1.105,-5.747,-6.23,155.69,-40.29,-4.863,-0.482,-5.464,-7.31,167.88,-30.87,-5.16,-0.499,-5.115,-11.19,168.81,-15.99,-4.731,-0.469,-5.776,-16.5,173.26,1.42,-4.86,-1.095,-5.723,-15.83,179.49,19.18,-4.866,-2.101,-4.921,-10.49,182.75,24.86,-4.88,-2.382,-4.981,-6.77,184.77,14.64,-5.812,-1.68,-5.62,-0.3,214.87,14.15,-6.506,-1.526,-3.645,11.29,275.91,8.32,-4.158,-2.498,-1.803,30.51,317.83,-10.1,-2.322,-3.729,-1.675,49.82,352.92,-24.86,-4.931,-1.818,-0.279,58.44,421.74,-35.66,-5.708,1.371,15.273,85.06,434.11,-98.97,12.218,7.647,53.795,77.08,323.18,-238.51,25.768,16.682,78.1,38.84,166.64,-163.48
0115-JANEIKE-01-21,Salto B,32.9,-1.518,89.598,66.56,183.34,-4.18,17.285,0.691,63.267,67.56,272.62,-41.46,1.827,2.619,36.244,41.1,275.84,-59.96,-1.783,1.483,18.49,36.6,166.03,-56.67,-2.748,-0.106,3.62,24.22,116.99,-70.08,-3.069,0.687,-2.917,7.79,54.37,-60.49,-1.113,1.073,3.289,8.68,-20.16,-46.24,-2.458,0.404,-0.489,-5.29,-89.54,-22.38,-6.753,1.072,-5.447,-9.28,-129.37,15.92,-8.237,-0.592,-9.58,-10.57,-164.56,24.7,-8.173,-0.285,-6.952,-11.26,-115.79,54.48,-6.659,-0.909,-5.127,-6.84,-68.96,9.67,-2.702,-2.28,-1.801,-6.02,10.9,-24.75,1.886,-1.875,-0.244,-14.64,105.73,-45.76,4.882,-0.326,-2.646,-16.07,207.09,-60.29,7.101,-0.336,-8.272,-33.52,287.02,-78.64,4.149,-1.745,-15.927,-48.18,420.33,-53.34,-7.801,3.334,-17.52,-28.46,496.99,-10.17,-16.604,0.732,-16.422,0.83,517.72,19.7,-18.614,0.719,-12.584,16.67,502.95,32.18,-20.235,2.1,-11.569,36.49,524.57,40.3,-19.49,0.247,-10.638,47.52,526.57,28.84,-19.584,-2.4,-11.759,44.96,520.93,-9.37,-18.366,-1.718,-8.461,30.41,488.08,-40.6,-13.255,-0.531,-3.64,37.14,420.19,-45.79,-10.022,0.482,-4.194,50.13,394.31,-44.19,-8.146,-0.63,1.101,51.24,329.61,-40.87,-5.255,-0.277,0.182,43.05,263.12,-46.24,-3.667,-0.358,0.806,39.02,199.71,-53.13,-2.679,-0.094,-1.417,29.93,161.99,-51.28,-2.58,0.98,-1.609,33.16,137.27,-33.63,-1.967,0.692,-2.093,36.91,114.21,-15.7,-1.255,-0.248,-2.783,27.43,100.44,-8.3,-0.415,-1.469,-3.66,19.97,92.39,-20.52,-0.501,-1.072,-3.631,6.79,96.06,-19.79,-0.885,0.021,-3.577,-0.46,103.89,-5.77,-0.975,-0.082,-4.264,2.23,120.89,-4.95,-1.397,-0.451,-3.283,-5.63,131.0,-1.09,-1.112,-1.055,-3.104,-7.84,124.46,3.07,-1.21,-1.109,-3.879,-9.49,123.22,11.19,-1.745,-0.196,-3.78,-13.73,108.33,11.8,-3.459,0.657,-3.86,-21.47,117.22,2.9,-5.083,0.672,-2.582,-33.05,114.8,-5.48,-6.169,1.521,-1.601,-29.61,123.58,6.36,-6.274,1.876,2.476,-14.01,114.53,25.45,-2.96,-0.644,2.018,-2.67,116.58,-3.96,2.859,-4.151,6.133,-11.44,163.53,-51.76,14.821,-2.875,23.405,-9.19,183.91,-32.96,29.714,0.979,51.422,0.86,153.55,2.19,48.055,-0.74,78.684,22.66,99.31,1.43
20191007-1150-FRANKFURT_2-01-110,Salto A,9.233,-1.442,73.231,38.19,241.95,-43.1,2.939,-0.594,52.234,20.13,264.32,-53.41,-2.945,1.29,28.12,10.75,303.39,-43.73,-9.452,2.426,12.108,7.12,315.63,-3.69,-9.531,2.114,1.433,13.18,299.19,-24.49,-5.502,1.123,-8.476,30.77,307.27,-12.98,-9.705,-0.578,-2.226,36.02,227.91,-6.62,-3.999,-0.477,0.74,30.54,243.52,-10.14,0.278,-0.44,-1.959,22.86,153.78,-12.88,0.987,-1.081,-2.722,22.09,95.42,-20.63,4.873,-0.923,-4.145,10.81,71.74,-24.48,3.995,-0.47,-6.338,3.94,119.67,-7.61,3.449,-0.925,-7.848,4.68,166.73,1.8,2.475,-0.828,-9.412,1.43,180.17,0.72,-0.149,-0.644,-9.416,0.89,204.43,-5.45,-1.589,-0.709,-9.398,-3.21,234.06,-9.44,-1.997,-0.871,-9.185,-10.53,249.51,-10.43,-2.387,-0.383,-8.943,-11.92,258.35,-5.77,-2.398,0.078,-9.092,-4.44,266.3,-8.25,-2.363,-0.155,-9.043,-0.75,273.32,-12.36,-2.078,-0.307,-8.563,-0.68,273.57,-3.82,-1.796,-0.613,-8.478,-4.71,271.88,0.84,-1.508,-0.276,-8.462,-8.01,269.67,7.91,-0.961,0.133,-7.896,-0.05,250.6,6.57,-1.409,-0.742,-8.146,4.19,222.1,1.56,-2.199,-0.312,-8.221,5.27,212.68,6.5,-2.181,-0.109,-7.939,13.49,199.78,9.08,-2.334,-0.544,-8.126,11.68,179.31,10.62,-3.063,-0.677,-8.126,2.26,163.83,11.98,-3.484,-1.039,-7.961,-0.81,156.74,4.64,-3.36,-1.65,-7.734,-2.9,153.4,-8.18,-3.692,-1.31,-7.478,-1.34,151.12,-10.94,-3.771,-0.619,-7.927,1.93,160.57,-4.98,-4.028,0.019,-8.007,2.83,163.1,4.45,-4.211,-0.141,-8.258,5.47,168.59,6.42,-4.507,-0.347,-8.857,6.35,168.77,11.1,-5.699,-1.356,-8.826,6.79,173.74,-1.12,-7.493,-1.075,-8.13,3.68,174.56,4.26,-9.076,-1.15,-6.736,1.16,191.06,13.33,-9.909,-1.326,-5.305,-5.78,210.63,21.13,-9.925,-0.702,-3.708,-7.77,230.3,31.7,-9.968,-0.047,-1.452,0.68,234.19,35.29,-9.354,0.293,2.218,15.56,243.74,30.47,-6.476,-0.55,3.669,27.39,254.82,13.69,-2.759,-1.125,1.693,31.34,270.83,14.56,2.804,-1.423,1.571,37.61,296.95,21.69,11.404,-1.989,10.529,45.49,304.51,-9.03,15.468,-1.076,30.874,72.86,345.79,-34.09,11.591,-0.513,53.65,65.27,261.17,-31.51,18.052,2.34,75.223,30.55,119.49,-45.31
20191008-1207-FRANKFURT_2-01-187,Salto A,-8.49,8.805,91.677,26.47,231.25,-57.84,-8.07,6.998,63.271,22.77,262.88,-62.42,-4.54,5.287,33.45,29.1,272.89,-30.93,-2.164,5.0,11.459,46.63,230.0,-20.6,-3.425,3.034,-1.874,56.97,131.87,-14.2,-5.971,-3.428,-8.172,50.71,111.97,0.94,4.248,-7.839,-4.416,29.28,149.03,-80.66,2.406,-1.984,0.274,-0.56,113.26,-4.43,1.106,0.644,-0.386,-2.03,32.92,-13.43,3.47,-1.031,-8.224,-1.36,-14.5,-16.42,1.851,-1.804,-10.391,4.05,30.76,-11.78,-0.488,-1.435,-7.294,6.53,72.58,-11.27,-0.919,-0.789,-8.845,6.58,90.48,-7.66,-2.523,-0.693,-10.331,17.64,145.56,-2.64,-3.833,-0.402,-8.657,33.19,195.98,-7.69,-4.224,-0.751,-8.936,39.03,234.8,-11.97,-5.885,-0.655,-7.984,39.45,260.17,-21.85,-5.868,-0.481,-5.994,40.47,259.13,-32.23,-5.405,-0.685,-5.37,46.33,250.96,-38.12,-4.772,-0.892,-5.131,54.29,245.4,-42.12,-4.235,-0.791,-5.811,51.07,245.7,-42.16,-3.682,-0.739,-5.943,37.28,246.75,-42.32,-3.644,-0.722,-5.988,20.88,242.82,-44.7,-3.693,0.075,-5.537,11.54,240.52,-34.86,-4.149,-0.48,-5.556,9.02,237.82,-24.7,-4.458,-0.507,-4.401,0.78,233.86,-17.73,-3.453,-0.588,-4.533,-0.9,220.64,-5.64,-2.886,-0.294,-4.634,9.98,205.66,8.14,-2.57,-0.447,-4.954,21.02,183.83,16.1,-2.175,-0.833,-5.718,22.54,177.37,18.91,-1.617,-0.686,-5.929,28.06,165.66,17.96,-3.17,-0.866,-6.233,32.12,164.0,15.01,-3.058,-0.928,-5.647,38.74,165.2,11.26,-3.58,-1.149,-5.754,42.84,159.99,-1.51,-3.33,-1.296,-6.04,39.02,163.85,-12.34,-4.046,-1.046,-6.564,35.37,173.41,-19.27,-4.39,-0.779,-6.699,33.55,191.27,-26.52,-4.946,-0.556,-6.204,29.92,204.46,-30.26,-5.649,-0.375,-5.387,25.66,207.54,-32.15,-5.601,0.369,-4.962,28.05,196.95,-26.09,-5.859,0.869,-5.763,34.25,192.46,-24.15,-6.335,0.71,-6.167,43.13,200.81,-18.95,-7.228,0.62,-4.264,54.09,228.18,-27.45,-7.611,0.577,-2.162,56.1,270.36,-28.82,-5.941,1.476,-1.768,47.78,271.22,-25.43,-4.135,-0.122,0.911,55.19,278.47,-28.96,-0.213,-1.775,4.898,53.05,317.98,-39.84,1.292,1.595,16.398,40.91,365.24,6.88,7.591,6.978,45.808,38.57,366.04,64.31,9.632,5.781,88.98,69.62,297.79,93.58
0609-1-01-812,Bauchsprung,19.447,-4.461,71.506,-2.31,72.46,12.73,12.868,-3.532,59.265,-2.15,38.13,8.03,5.835,-1.258,40.063,-1.52,-2.62,2.35,2.22,0.011,21.96,1.64,-29.41,5.49,2.03,-0.127,8.725,5.89,-56.96,6.8,1.376,-0.03,-0.141,4.47,-36.9,17.33,1.229,0.402,-1.458,1.55,-35.71,23.6,1.729,-0.188,0.411,-0.52,-51.14,13.68,0.664,-0.521,-0.586,-11.28,-39.65,-0.22,-0.027,0.088,-0.282,-20.72,-31.2,-12.39,-0.566,0.293,0.892,-18.24,-43.23,-33.97,-1.007,-0.042,0.453,-13.34,-64.72,-42.07,-1.048,0.061,0.372,-9.12,-70.2,-37.24,-1.223,-0.034,0.246,-1.95,-71.34,-31.15,-1.07,-0.195,0.09,1.23,-72.49,-25.25,-0.927,-0.349,-0.052,0.06,-68.58,-19.45,-0.858,-0.221,0.305,-3.72,-62.92,-10.74,-0.916,-0.097,0.737,-2.1,-70.99,5.66,-1.412,0.068,0.15,4.98,-79.19,9.95,-1.409,0.178,-0.321,15.77,-82.48,12.17,-1.044,0.284,-0.883,29.38,-78.77,15.39,-0.793,-0.114,-0.764,32.44,-73.53,20.59,-0.733,-0.554,-0.63,22.57,-79.13,23.49,-0.435,-0.448,-0.995,11.91,-88.54,17.83,-0.088,-0.464,-1.218,5.92,-89.25,9.84,-0.181,-0.52,-1.33,-0.24,-81.2,12.28,0.124,-0.183,-1.044,-3.76,-71.64,11.66,0.36,-0.142,-0.848,-0.58,-61.88,4.1,0.428,-0.209,-0.473,1.95,-56.18,-2.64,0.199,-0.164,-0.415,3.74,-53.71,-7.29,-0.053,-0.394,-0.833,4.1,-50.24,-9.18,-0.121,-0.641,-0.751,1.59,-44.25,-9.76,-0.005,-0.493,-0.451,1.07,-47.76,-11.47,0.1,-0.339,-0.205,1.77,-52.46,-13.28,0.112,-0.353,-1.104,3.34,-50.91,-15.79,0.156,-0.213,-1.145,5.18,-39.26,-18.11,0.167,-0.877,-1.031,6.69,-39.52,-7.86,0.15,0.062,-0.734,4.07,-39.69,18.92,-0.003,-0.397,-1.663,-5.08,-24.83,2.91,-0.193,-0.305,-1.472,-10.42,-14.89,0.63,-0.809,-0.354,-2.138,-21.71,6.16,3.7,-1.261,-0.283,-2.089,-31.35,37.92,13.0,-0.877,-0.146,-2.023,-32.43,66.6,19.69,-0.275,-1.033,-2.361,-25.44,107.99,5.79,0.766,0.119,-1.455,-24.49,152.28,-20.17,5.514,1.377,0.374,-15.52,182.97,-24.49,18.749,1.375,7.139,-11.18,160.28,4.06,31.674,1.817,21.335,9.75,139.1,-7.63,48.743,1.636,37.142,9.3,73.16,-17.35,67.373,-2.254,55.665,-13.38,33.81,-30.47
0827-BK2-02-147,Salto A,19.443,4.144,82.267,21.8,130.69,9.66,9.037,1.837,61.293,10.41,199.67,-8.03,-0.492,0.216,37.974,0.46,227.36,-24.91,-3.425,-0.394,19.005,-2.21,204.45,-27.84,-2.62,0.492,2.054,-0.98,216.19,-17.08,-2.683,1.563,-6.194,14.71,244.89,-17.17,-2.152,-1.403,-2.439,27.8,215.55,-50.43,0.032,-1.213,-0.454,14.77,192.2,-52.55,0.722,1.591,-2.864,5.39,165.51,-56.87,3.019,2.702,-2.359,12.98,136.91,-46.16,2.071,2.157,-3.689,15.54,124.05,-32.57,0.805,-0.05,-5.085,-2.0,113.23,-28.79,0.52,-0.829,-5.883,-14.62,131.68,-34.99,-0.802,0.402,-5.159,-0.16,154.46,-38.11,-2.091,0.962,-4.706,9.96,160.37,-29.01,-2.558,1.285,-5.546,8.63,159.27,-29.46,-2.538,0.723,-6.995,1.84,177.09,-26.39,-2.246,0.365,-6.748,4.15,202.77,-20.19,-2.232,0.328,-5.669,5.89,222.6,-12.05,-2.2,0.386,-5.348,-0.3,235.85,-9.58,-2.108,0.515,-5.648,-6.48,230.29,-1.94,-2.355,0.725,-5.243,1.21,215.7,-8.88,-2.057,0.843,-6.01,7.9,199.92,-1.78,-2.077,0.847,-6.152,14.48,204.23,-5.51,-2.485,0.087,-6.101,18.81,211.86,-4.2,-2.806,-0.151,-6.168,19.52,221.0,-6.56,-2.584,-0.002,-5.966,22.78,223.24,-5.68,-2.59,0.184,-5.936,15.88,220.8,-19.47,-3.126,0.581,-5.724,16.05,214.48,-25.16,-3.285,0.154,-5.185,16.26,205.38,-25.5,-3.128,-0.015,-5.092,10.66,195.54,-24.83,-3.076,0.436,-4.947,4.91,179.99,-25.08,-3.282,0.057,-5.103,6.16,170.7,-27.91,-3.43,0.469,-5.087,8.14,163.83,-29.31,-3.467,0.603,-4.609,8.4,157.69,-30.89,-3.391,0.481,-5.144,7.51,150.72,-32.14,-3.246,-0.039,-5.443,11.1,151.99,-37.92,-3.016,0.457,-5.742,12.17,154.47,-45.79,-3.168,0.792,-6.168,17.21,161.08,-49.49,-3.711,0.7,-6.135,24.87,160.26,-44.58,-5.034,0.733,-6.071,25.27,168.0,-37.1,-5.463,0.405,-4.656,10.89,170.74,-24.6,-6.43,0.559,-4.962,-6.37,176.69,-15.58,-7.113,0.953,-3.307,-8.44,182.16,-1.98,-6.813,0.914,-2.265,3.09,191.43,5.65,-6.935,0.339,0.476,7.11,220.45,-4.89,-3.119,-1.237,10.173,7.39,248.79,-14.64,5.232,-0.935,25.954,13.52,243.13,-14.31,17.104,2.673,51.602,13.33,190.45,-1.92,29.624,1.129,74.141,24.33,106.63,-11.07
0609-1-01-749,Bauchsprung,17.207,3.35,75.557,5.89,44.26,22.86,10.617,1.647,62.158,11.0,43.99,26.7,3.788,-0.619,43.799,1.36,30.91,7.81,0.755,-0.846,23.804,-8.73,-6.44,1.99,0.437,-0.502,9.118,-5.87,-18.04,-1.45,1.099,-1.201,0.419,-4.39,-29.31,-2.33,3.009,-0.38,0.446,-6.38,-60.63,4.09,2.016,-0.478,-0.773,-3.49,-28.24,-3.35,-0.565,0.309,-1.112,-3.2,-10.04,-1.99,-0.739,0.829,0.268,-3.84,-26.78,-10.76,-0.694,-0.135,0.111,-4.48,-37.27,-21.92,0.018,-0.549,-0.343,0.66,-49.55,-19.02,0.115,-0.243,0.006,6.33,-46.24,-14.62,0.238,0.079,-0.144,7.62,-50.38,-12.11,-0.008,-0.054,-0.129,9.92,-53.2,-10.28,-0.058,0.05,0.518,4.25,-53.38,-8.79,-0.328,-0.061,0.156,1.36,-54.77,-6.57,-0.289,-0.161,-0.321,-1.36,-59.74,-1.94,-0.273,-0.179,-0.464,-1.64,-62.44,1.97,-0.275,-0.161,-0.277,-2.67,-66.28,3.82,-0.111,-0.124,0.137,0.26,-63.93,5.76,-0.075,-0.064,0.084,5.3,-61.83,8.44,-0.27,-0.189,0.16,10.2,-63.7,10.28,-0.316,-0.314,0.283,13.15,-69.32,6.94,-0.614,-0.499,0.018,12.8,-65.96,0.48,-0.971,-0.588,0.262,9.53,-69.16,-5.45,-1.109,-0.212,0.365,8.82,-81.0,-10.03,-1.296,-0.013,0.532,5.08,-87.22,-4.15,-1.618,0.064,0.006,-2.18,-95.72,7.68,-1.756,-0.347,-0.182,-15.1,-94.63,23.13,-1.733,-0.167,-0.43,-22.09,-96.55,20.49,-0.775,-0.415,-1.469,-14.57,-103.15,1.43,-0.129,-0.474,-2.24,-11.6,-88.88,-8.38,0.329,-0.089,-1.734,-10.33,-73.3,-3.77,0.772,0.737,-1.306,-2.57,-78.98,5.83,1.17,0.974,-1.829,11.29,-66.25,3.82,1.397,0.902,-1.501,26.5,-42.53,-11.96,1.164,-2.099,-0.31,30.75,-26.92,0.27,0.307,-1.066,-0.551,21.79,-58.68,7.06,0.318,-1.031,-2.602,21.58,-47.3,13.94,-1.566,0.281,-1.201,16.88,-27.67,18.49,-1.725,-0.786,-2.349,12.77,6.33,11.82,-1.483,-1.36,-2.101,8.44,59.23,3.87,-0.696,-1.672,-2.747,6.67,117.88,-2.69,0.755,-1.647,-2.507,3.56,168.5,-30.79,3.224,0.43,1.424,-6.16,198.57,-21.03,17.316,2.022,8.198,-20.66,196.0,17.16,32.642,1.07,25.174,-27.17,105.42,-12.96,50.245,-1.995,40.869,-31.13,32.35,-36.56,68.812,0.216,55.275,-34.01,28.66,-22.18
0115-CHARI-05-167,1 3/4 Salto vw C,21.704,5.299,92.154,30.76,-152.43,-6.69,16.456,5.295,65.573,27.77,-204.33,20.22,7.79,4.046,34.825,9.7,-315.36,38.87,-6.001,1.294,8.356,-1.02,-390.9,28.31,-9.15,-2.819,-4.943,-4.09,-374.49,27.43,-11.814,0.95,0.589,-18.46,-386.29,15.79,-17.953,0.799,0.859,-14.85,-432.2,-14.7,-22.91,0.619,3.488,-9.79,-478.57,-23.94,-30.033,0.205,0.558,0.53,-570.79,-25.84,-36.152,-0.523,-4.528,8.99,-642.33,-35.34,-41.047,-0.403,-10.737,9.89,-674.99,-20.58,-42.625,1.164,-16.491,8.76,-674.12,-4.95,-45.222,-0.696,-15.645,22.55,-644.56,-23.64,-47.269,-1.131,-16.815,23.31,-693.64,-11.22,-47.17,-0.273,-19.036,24.21,-724.88,7.21,-46.267,-0.083,-19.784,25.9,-728.77,29.94,-39.996,0.569,-21.254,16.4,-705.33,43.13,-27.597,-0.208,-22.197,-3.16,-602.11,22.21,-18.502,-0.484,-18.228,-6.12,-412.42,-5.75,-14.791,0.5,-14.679,-11.99,-245.84,-10.4,-11.339,0.755,-12.973,-11.3,-137.02,-13.1,-8.992,0.304,-11.146,-4.59,-75.48,-9.87,-6.431,-2.029,-10.377,-4.67,-44.47,-26.47,-1.666,-0.815,-16.544,-17.74,11.95,-31.42,3.43,-0.846,-11.153,-6.02,8.26,-36.59,3.4,1.145,-8.101,-5.49,-47.81,-14.11,2.362,1.62,2.877,-4.13,-127.17,-8.8,4.364,-0.211,-1.789,0.34,-213.12,3.42,0.201,0.401,-1.796,-0.28,-239.38,-2.89,-1.291,0.811,-0.793,-2.81,-273.83,-2.28,-1.155,1.174,-3.49,0.21,-282.94,5.13,-1.177,0.504,-2.769,1.2,-290.0,11.87,-1.78,0.353,-2.742,-0.92,-302.3,11.51,-2.596,-0.004,-3.243,-2.76,-309.02,9.2,-3.564,0.045,-3.616,-3.38,-315.45,6.61,-4.412,0.584,-3.35,-2.23,-319.4,0.03,-5.361,0.344,-3.813,-2.0,-331.28,-2.47,-5.913,0.3,-4.682,-7.53,-339.33,-2.61,-6.266,0.28,-5.366,-10.58,-344.08,-5.2,-7.029,0.517,-5.768,-12.63,-347.6,-7.44,-7.517,0.274,-6.33,-12.46,-356.46,-2.85,-7.225,-0.277,-6.479,-8.91,-358.28,-12.71,-6.958,0.159,-6.404,-5.81,-357.72,-19.12,-6.36,0.492,-5.727,3.54,-363.92,-27.27,-6.84,0.533,-4.703,10.67,-379.74,-18.62,-17.526,4.169,-4.776,12.06,-412.65,25.29,-24.471,-3.773,4.688,-12.82,-251.72,-11.24,-24.025,4.186,13.221,-9.7,-285.26,-15.7,-34.326,3.229,29.054,40.45,-141.99,23.99,-55.465,4.055,53.684,32.07,-13.1,68.56
0609-1-01-679,Von Bauch in Stand,70.829,3.356,53.91,13.38,-8.48,3.17,59.845,3.168,42.064,11.94,-23.86,2.2,43.05,4.177,25.022,14.86,-41.58,-1.31,25.1,2.872,10.606,28.03,-53.07,21.74,9.259,-0.077,-1.774,31.81,-135.61,40.74,-0.696,-0.808,-4.891,27.35,-90.81,18.06,-4.816,1.522,-0.227,14.81,-26.1,19.96,-2.201,0.568,-0.703,8.26,-25.07,3.66,-1.34,-0.546,-1.235,15.29,-18.28,-3.65,-0.024,0.339,-2.851,9.35,-1.9,24.75,0.092,0.646,-0.948,11.62,4.98,44.67,0.221,0.265,0.239,19.72,-5.0,70.98,-0.764,0.452,-0.009,23.8,-20.99,91.86,-1.618,0.108,-0.079,25.99,-24.11,83.16,-1.294,0.234,-0.119,24.33,-17.2,63.76,-0.858,-0.337,0.018,20.92,-1.78,33.11,-0.243,-0.359,0.046,12.54,0.65,0.86,0.159,-0.66,-0.264,7.77,2.9,-27.37,0.256,-0.915,0.199,1.37,12.56,-49.52,-0.075,0.379,1.027,-0.07,20.83,-48.4,0.311,0.642,0.674,4.44,16.74,-53.57,0.985,0.94,-1.115,13.88,35.24,-61.9,1.325,1.229,-1.917,22.83,30.36,-61.37,2.818,0.668,-0.85,12.44,19.41,-49.56,1.507,-0.218,-0.382,-8.44,10.87,-8.4,1.227,0.853,-0.243,-24.62,-3.77,19.46,0.686,1.206,-0.148,-32.76,-17.67,34.64,-0.737,0.542,-0.269,-40.78,-23.09,49.93,-1.754,-0.494,0.042,-47.97,-4.93,58.8,-1.724,-1.361,0.114,-40.83,3.09,56.7,-0.67,-1.657,-0.476,-27.16,5.03,41.04,-0.688,-2.311,-0.154,-16.97,14.09,5.88,-0.631,-1.927,0.486,-14.48,16.28,-19.54,0.7,-2.349,-0.152,-12.0,27.42,-27.13,0.746,-1.567,-0.868,-7.06,44.54,-15.23,1.389,-0.837,-0.814,-0.49,58.62,-4.48,1.997,-1.428,-1.607,10.45,61.1,-4.46,1.543,0.587,-1.089,15.87,63.92,16.72,0.043,3.01,-0.154,19.81,52.16,53.11,-0.457,1.374,-2.331,37.77,48.74,55.37,-0.455,-0.463,-5.488,43.03,47.96,43.93,-3.253,1.463,-3.828,44.88,51.39,32.64,-6.128,1.773,-1.595,42.13,47.44,5.29,-6.961,1.427,0.92,30.97,52.75,-25.45,-4.057,-0.396,5.91,28.33,53.68,-45.49,5.058,-3.483,10.575,20.83,47.86,-59.74,16.707,-2.403,14.474,8.12,75.96,-42.33,25.385,0.031,18.992,9.04,136.14,-25.5,29.449,0.334,41.091,21.73,209.63,-30.19,35.657,0.708,63.424,2.74,205.9,-42.25
20191007-1159-FRANKFURT_1-01-400,3/4 Salto vw A,14.18,3.483,84.314,7.97,2.16,-1.31,4.836,4.943,58.349,22.91,-7.68,8.58,-0.733,3.79,29.677,21.77,-61.2,3.83,-2.39,-0.728,4.756,14.57,-73.59,-23.79,-0.233,-3.588,-6.646,6.5,-93.79,0.87,2.274,-0.61,-1.398,0.41,-114.26,31.26,0.149,-0.625,-3.419,9.09,-22.51,7.19,-0.715,-1.667,-3.304,9.89,17.45,1.96,-1.407,-1.401,-2.439,4.38,23.6,-2.53,-0.818,-0.617,-2.295,1.04,32.82,-2.88,-0.002,-0.654,-1.61,0.84,28.24,3.39,0.244,-0.529,-1.014,2.32,20.76,5.46,1.131,-0.72,-1.177,4.06,16.95,7.01,1.58,-0.452,-0.295,1.88,1.27,14.72,1.527,-0.279,-0.283,1.56,-16.78,8.67,1.448,-0.666,-0.865,-0.76,-40.81,7.02,0.792,-0.463,-0.04,0.19,-67.49,5.76,0.093,-0.574,0.139,0.37,-85.01,3.11,0.016,-0.174,-0.433,0.65,-103.75,3.97,-0.51,-0.712,-0.13,4.1,-126.03,3.76,-0.663,-1.431,0.084,-1.9,-138.33,3.52,0.294,-0.216,-0.644,2.26,-149.67,4.41,0.903,-0.882,-1.365,3.83,-162.12,10.24,0.195,-0.411,-0.415,2.67,-172.33,14.93,0.351,-0.389,-0.588,4.0,-179.53,16.04,0.101,-0.811,-0.264,-0.4,-195.41,24.24,-0.915,-0.317,0.222,-0.72,-201.56,21.71,-1.508,-0.332,-0.058,5.4,-209.63,20.25,-1.65,-0.707,0.661,9.02,-231.23,22.77,-2.415,-0.377,0.428,9.14,-255.36,19.39,-3.391,-1.152,-0.392,9.4,-291.69,12.47,-4.283,-0.9,-1.004,12.54,-323.94,12.32,-5.694,-0.414,-0.973,19.46,-333.67,20.54,-7.41,-0.85,-2.352,16.8,-329.36,21.57,-7.743,-0.337,-3.647,6.86,-322.56,22.49,-7.816,-0.889,-4.366,11.66,-330.31,17.04,-7.174,-1.385,-4.795,19.47,-339.02,9.97,-7.097,-1.314,-5.018,21.01,-338.77,18.06,-6.29,-1.045,-4.991,16.76,-347.9,18.57,-6.22,-0.613,-3.849,12.84,-336.0,18.62,-6.627,-0.297,-3.6,9.29,-333.98,35.06,-5.426,-1.805,-4.9,1.11,-319.72,18.88,-3.777,-1.786,-7.059,-13.92,-277.68,-0.2,-3.624,-0.759,-5.44,-9.57,-233.7,12.45,-3.037,-0.73,-4.795,4.83,-204.11,27.51,-3.689,-1.848,-2.174,11.82,-204.68,18.73,-19.216,-1.222,2.503,2.25,-219.17,14.35,-38.275,-2.047,13.567,0.73,-220.56,-4.48,-50.071,-1.844,31.869,-5.08,-131.83,-31.58,-78.456,-2.439,51.565,-5.81,10.42,-1.43
0609-4-01-94,Schraubensalto C,21.408,5.816,85.03,27.9,190.14,110.4,10.252,2.25,62.745,44.67,215.88,109.99,3.186,1.14,35.747,58.46,223.79,99.09,0.815,1.236,14.608,68.54,211.43,95.41,-0.165,-1.796,-1.767,69.06,235.92,141.49,-1.548,-0.026,-12.233,86.65,202.63,148.58,-1.112,3.141,-2.959,82.45,106.9,100.84,-1.058,2.51,0.7,83.55,125.67,97.18,-1.07,-0.163,-2.021,97.35,98.34,140.1,-1.798,0.066,-3.969,118.76,87.53,178.75,-3.149,1.054,-2.8,151.84,94.41,204.5,-4.668,2.479,-1.283,197.01,81.48,255.44,-6.461,2.754,-0.248,242.13,57.9,308.6,-8.421,2.098,2.543,273.81,26.24,353.71,-9.257,0.377,4.796,289.29,-40.92,398.38,-10.278,-3.503,4.376,289.31,-116.59,439.07,-11.847,-4.877,1.634,268.68,-175.95,453.11,-12.176,-4.473,-0.712,237.02,-203.56,463.05,-12.809,-4.354,-1.526,192.09,-214.02,471.74,-12.895,-3.97,-4.382,119.99,-207.19,482.97,-13.101,-2.097,-5.895,58.73,-188.86,498.75,-13.005,-3.049,-8.257,9.05,-156.66,493.32,-12.048,-2.975,-9.806,-33.67,-112.43,483.12,-10.787,-3.282,-10.651,-59.07,-60.33,462.11,-9.832,-3.792,-10.318,-72.68,-5.03,433.15,-8.998,-3.719,-9.992,-78.15,45.47,403.0,-8.252,-4.182,-8.723,-75.55,88.87,363.29,-6.689,-5.126,-7.185,-67.81,126.0,319.78,-5.274,-4.666,-6.35,-62.0,153.25,276.81,-4.495,-3.532,-6.494,-53.06,180.55,234.39,-3.983,-2.423,-6.023,-51.44,199.31,206.02,-3.604,-0.99,-5.57,-47.84,200.98,189.93,-3.601,-0.755,-5.615,-37.32,196.91,170.55,-3.893,-0.408,-5.684,-24.45,189.66,155.38,-4.173,-0.699,-5.087,-9.54,177.87,134.75,-4.063,-1.355,-4.829,-4.76,165.89,105.97,-4.287,-1.411,-5.32,-3.96,154.64,90.02,-4.625,-1.299,-5.221,-4.24,151.82,80.56,-4.559,-1.046,-4.668,-1.13,151.06,64.66,-4.73,-1.048,-4.398,2.19,150.61,50.43,-5.097,-0.629,-4.118,5.19,148.31,40.15,-5.73,-0.209,-3.387,12.83,146.19,34.74,-6.172,-0.361,-3.068,20.17,151.53,41.84,-6.353,-0.853,-2.541,27.85,164.05,40.2,-5.271,-0.522,-1.173,32.45,179.33,27.65,-2.468,-0.406,1.156,36.55,192.45,19.89,1.698,-1.957,5.444,32.66,222.88,-8.65,8.349,-1.907,21.423,31.65,268.06,-23.42,16.575,0.846,56.343,23.22,240.87,-4.68,30.457,4.467,82.262,21.05,99.38,-7.34
0609-1-01-254,Bauchsprung,17.567,-0.406,83.888,-0.08,69.9,29.19,7.644,-1.682,64.783,-0.75,42.01,18.02,4.215,-1.042,39.231,-7.01,-1.96,14.68,2.084,-1.99,16.711,-0.05,-13.29,4.82,1.259,-1.977,2.094,-9.08,-6.43,-14.97,2.952,1.108,-1.599,-24.43,-33.21,-24.16,2.139,2.408,-1.531,-24.39,-4.94,-13.31,-0.51,1.379,-1.992,-12.59,27.31,-5.03,-0.635,-0.867,0.19,-8.73,19.8,-16.44,-0.231,-0.895,0.683,-2.59,1.34,-9.86,-0.089,-0.716,0.782,-0.08,-8.04,-14.52,-0.027,-0.45,0.43,1.34,-26.28,-15.01,0.119,0.045,0.49,2.94,-33.9,-19.04,0.094,0.108,0.147,0.36,-46.32,-22.68,-0.175,-0.127,0.591,2.91,-54.79,-20.91,0.172,0.08,0.006,7.62,-61.24,-13.88,-0.267,-0.016,0.362,6.6,-62.78,-5.33,-0.223,-0.071,-0.118,6.7,-68.09,0.36,0.01,-0.131,0.046,7.82,-62.03,3.46,-0.22,-0.113,0.021,6.91,-64.06,2.78,-0.19,-0.292,0.065,1.36,-62.61,10.76,-0.411,0.111,0.049,-2.86,-63.66,14.08,-0.554,-0.385,0.637,-4.78,-64.64,14.38,-0.857,-0.38,0.899,-8.21,-67.45,9.84,-1.555,-0.447,0.101,-11.65,-84.1,-0.26,-1.557,-0.554,-0.167,-19.63,-98.3,-7.3,-1.455,-0.9,-0.026,-26.06,-111.15,-23.24,-1.574,-0.534,-0.365,-27.54,-126.91,-35.31,-1.348,-0.219,-0.72,-17.4,-128.17,-47.37,-0.502,0.191,-1.349,-6.66,-105.55,-39.03,-0.654,0.254,-1.075,2.61,-74.5,-22.71,-0.676,0.317,-1.45,5.0,-67.12,-29.39,0.054,0.02,-1.119,7.6,-57.26,-29.31,0.423,0.269,-1.717,5.94,-54.32,-15.7,0.29,1.036,-1.355,12.21,-43.07,1.71,0.954,0.833,-1.069,21.86,-24.24,18.06,1.986,-0.063,-1.081,29.17,-4.85,45.93,2.702,-1.447,-0.348,41.09,-5.94,62.18,0.989,0.052,-0.8,44.4,1.65,61.54,0.585,-1.333,-1.422,49.0,0.51,24.93,-0.232,-1.586,-0.603,39.94,-10.8,5.91,-1.797,-1.537,-2.856,23.95,0.2,1.52,-2.9,-1.167,-1.848,0.36,14.84,-12.79,-2.266,-0.846,-1.542,-14.78,34.7,-21.39,-1.479,-0.265,-1.493,-26.62,52.93,-31.8,1.073,1.682,0.477,-33.22,133.01,-10.6,12.885,0.518,6.694,-27.85,220.81,-56.69,32.459,0.028,18.52,-7.4,70.13,-82.3,52.132,6.422,35.579,-29.05,34.85,17.22,71.514,2.038,59.024,-9.89,48.73,-34.54
0609-4-01-500,Fliffis B,49.09,3.467,85.564,10.57,-118.85,36.95,25.548,1.722,58.802,-17.88,-255.04,71.95,3.763,0.883,28.378,-59.45,-385.89,72.31,-16.135,-2.142,-2.396,-80.01,-482.58,12.48,-29.093,-1.346,-16.813,-92.46,-622.19,23.69,-21.436,1.724,3.479,-72.88,-654.46,-24.15,-35.305,1.241,6.259,-55.21,-676.85,1.11,-41.798,1.791,-2.002,-50.49,-702.55,-3.63,-43.545,0.922,-3.66,-27.42,-720.81,-39.36,-42.946,0.521,-4.849,3.34,-710.23,-38.64,-43.242,0.667,-3.287,13.99,-683.83,-4.99,-43.189,-1.322,-1.111,23.64,-633.43,-7.15,-40.584,-1.843,-1.519,32.88,-585.79,9.14,-34.655,-0.252,-5.14,50.54,-552.58,44.51,-24.774,-1.581,-7.795,47.1,-454.79,53.62,-18.782,-1.729,-8.815,40.06,-304.75,42.52,-16.157,-0.861,-10.804,27.22,-170.44,72.02,-15.719,2.855,-12.194,13.42,-55.58,125.83,-13.956,6.66,-12.26,42.9,-9.4,182.26,-15.674,9.622,-16.321,59.37,-3.44,224.43,-13.838,4.073,-8.268,-2.16,-76.45,281.5,-14.454,2.897,-5.844,-84.7,-126.97,339.2,-13.595,2.591,-13.65,-125.22,-148.21,355.24,-12.091,0.121,-18.002,-183.24,-142.71,357.1,-10.209,-0.591,-22.008,-255.34,-120.44,365.18,-10.334,-0.613,-24.13,-283.7,-70.07,377.96,-10.933,-1.506,-24.031,-274.84,-2.0,390.36,-11.551,-3.481,-22.789,-261.11,81.22,394.46,-11.348,-4.474,-20.806,-243.59,153.42,374.88,-11.071,-4.529,-18.771,-216.53,203.45,343.66,-10.794,-4.39,-17.528,-185.94,234.83,307.52,-9.978,-4.735,-16.847,-156.73,260.84,264.99,-9.087,-4.754,-15.122,-133.33,282.95,218.71,-7.76,-3.598,-13.592,-113.65,300.26,189.04,-6.938,-2.698,-12.981,-87.49,296.45,153.25,-6.948,-1.995,-12.519,-72.57,272.39,119.91,-7.007,-1.328,-13.623,-52.36,252.11,91.88,-8.369,-2.228,-13.704,-34.93,229.48,63.46,-9.174,-1.704,-13.478,-32.19,219.62,56.23,-10.404,-1.189,-13.28,-23.89,216.96,64.44,-12.424,-1.884,-12.073,-14.08,227.28,64.64,-13.624,-1.912,-11.59,-12.18,244.34,69.12,-14.712,-1.722,-11.461,-10.01,269.53,73.38,-16.355,-3.397,-9.796,0.16,307.04,71.71,-17.049,-3.845,-5.692,-0.63,340.11,52.83,-15.223,-1.806,-1.973,-1.69,375.8,17.0,-8.617,0.606,3.499,7.22,394.75,5.75,0.893,0.749,18.396,13.86,414.23,-36.31,14.035,0.351,57.027,9.67,375.41,-58.55,33.454,3.616,85.827,-11.23,197.85,-9.38
0609-1-01-569,Doppelsalto B,18.617,7.616,85.259,64.9,252.7,-38.48,4.871,8.01,60.731,69.38,318.53,-68.8,-3.395,4.375,32.611,40.54,341.6,-65.57,-0.675,-1.156,9.556,-12.46,219.36,-66.72,-0.376,-0.686,-7.198,-28.94,158.45,-69.0,-6.413,3.294,-2.937,-12.58,187.47,-51.09,-3.546,1.419,3.206,-7.54,73.37,-47.58,-7.155,-0.427,-7.105,-6.79,-12.03,5.0,-6.557,-3.538,-21.196,-7.52,-77.99,15.47,-11.306,-2.381,-14.31,-16.94,-163.52,-22.1,-12.831,0.206,-11.402,-22.74,-18.43,-50.2,-11.643,-0.614,-7.064,-28.88,98.78,-48.11,-8.437,-1.251,-3.187,-49.21,239.96,-25.65,-15.617,-1.29,-3.372,-61.28,376.22,15.95,-24.221,-2.65,-4.681,-45.41,529.96,25.63,-30.605,-3.366,-1.723,-46.67,621.8,-24.01,-34.555,-3.35,-0.698,-64.17,677.32,-12.22,-35.21,-3.251,-0.667,-63.48,696.38,6.47,-35.085,-3.716,-2.073,-57.29,675.78,6.56,-34.912,-2.992,-3.424,-56.25,667.5,8.15,-34.793,-1.627,-4.338,-45.34,676.06,27.27,-33.799,-1.63,-7.76,-25.36,709.78,19.54,-31.77,-2.582,-14.005,-3.67,749.18,-7.18,-32.889,-2.618,-23.592,-8.6,803.93,-36.95,-35.935,-1.755,-25.648,-13.76,845.33,-16.79,-36.656,-0.356,-30.525,-18.38,841.1,-3.38,-37.069,1.737,-29.463,3.8,812.56,34.09,-35.459,-0.568,-30.54,38.25,764.44,25.26,-34.064,0.002,-30.044,47.61,738.35,3.02,-30.763,2.815,-29.66,48.02,671.4,27.16,-25.607,2.383,-19.972,62.33,579.46,39.03,-19.909,0.683,-14.423,67.82,535.68,-10.52,-15.817,0.898,-5.938,54.64,458.34,-16.31,-8.913,1.24,-4.388,56.56,366.2,-20.07,-5.278,0.079,-6.286,55.6,295.76,-16.32,-3.933,0.322,-7.849,49.16,251.3,-9.12,-4.336,0.402,-8.444,43.8,215.42,-8.35,-3.837,0.436,-6.491,45.23,169.11,2.5,-2.872,-0.269,-11.709,42.2,144.75,5.54,-2.691,-0.974,-10.983,41.09,145.73,-14.97,-2.398,-1.79,-10.845,25.19,128.59,-28.48,-4.415,-1.726,-13.193,13.98,141.13,-33.82,-7.817,0.495,-10.437,3.9,179.14,-27.07,-10.588,1.387,-9.669,9.77,210.35,-11.13,-13.269,3.142,-6.123,31.22,243.67,19.07,-11.184,2.448,-3.457,43.08,289.89,33.14,-3.29,0.833,7.019,48.19,317.54,20.12,6.792,-4.531,24.148,44.93,365.13,-43.72,16.019,-0.729,55.604,38.03,321.52,-19.48,34.503,3.778,85.169,26.46,143.18,-8.84
20191001-1202-FRANKFURT_2-01-132,Salto A,-25.908,-9.768,76.187,3.95,-227.25,23.09,-14.268,-7.858,59.521,-7.25,-298.86,1.7,-4.971,-4.976,39.777,-15.25,-327.03,8.87,0.991,-1.928,19.996,-10.51,-319.39,32.8,4.637,-0.534,6.182,-0.86,-246.17,35.38,6.856,0.271,-2.221,-2.81,-159.85,12.32,3.728,1.564,-3.071,-4.94,-139.97,-41.83,-1.46,-0.617,0.622,6.06,-97.26,-33.03,-3.2,-2.913,-1.604,9.47,-77.95,-7.62,-3.874,-1.371,-4.801,7.38,-52.5,-4.37,-3.969,-0.356,-8.372,-8.88,-70.7,-6.02,-1.954,-0.278,-10.447,-14.73,-127.25,-0.09,2.247,-0.54,-7.975,-14.45,-133.05,-11.83,3.479,-0.854,-6.384,-15.09,-155.87,-15.37,4.054,-0.539,-6.712,-21.57,-155.85,-3.57,4.53,1.309,-6.637,-16.8,-169.74,-41.31,4.327,0.701,-6.335,-2.26,-199.57,-47.72,4.217,-0.157,-6.292,-0.17,-220.71,-44.08,3.921,-0.606,-6.457,-4.85,-232.04,-31.46,4.348,-0.093,-6.156,-8.89,-232.92,-25.13,4.214,0.151,-5.861,-10.15,-235.7,-25.07,4.208,0.009,-5.782,-5.47,-225.72,-22.04,4.365,-0.238,-5.452,-2.59,-219.77,-20.72,3.841,-0.402,-5.544,2.02,-210.5,-14.98,4.045,0.071,-5.76,3.43,-204.52,-10.09,4.177,0.128,-5.778,7.66,-204.31,-8.81,4.633,0.314,-5.677,10.62,-202.07,-10.13,4.565,0.206,-5.632,11.89,-204.62,-12.93,4.594,0.516,-5.548,8.15,-203.95,-17.06,4.664,0.305,-5.7,5.32,-203.88,-21.77,4.819,-0.157,-5.687,4.21,-202.12,-19.15,5.156,-0.348,-5.378,6.12,-196.58,-20.32,5.635,-0.389,-5.026,7.89,-191.01,-19.45,5.862,-0.528,-4.487,9.89,-184.38,-16.87,5.585,-0.071,-4.53,14.45,-176.05,-15.86,5.525,-0.323,-4.798,19.38,-171.97,-15.28,5.896,-0.937,-4.521,20.18,-171.41,-10.15,5.989,-0.865,-4.452,19.59,-170.49,-5.32,6.003,-0.848,-4.324,20.41,-170.33,-1.91,5.693,-0.892,-4.254,19.07,-174.15,2.76,5.262,-0.818,-4.656,17.53,-186.09,7.67,5.125,-0.878,-4.675,14.38,-206.5,12.0,4.921,-0.699,-5.19,11.02,-234.36,14.59,4.696,-0.474,-5.597,5.77,-268.99,16.16,2.92,0.526,-6.573,2.49,-301.32,6.29,-0.762,1.502,-7.993,2.93,-335.96,-11.22,-6.117,2.252,-2.008,8.92,-365.64,-37.96,-14.761,2.237,19.198,24.24,-365.6,-39.67,-25.551,-0.192,42.722,23.82,-312.11,-36.08,-35.719,-2.191,66.778,16.55,-216.55,-42.84
20191008-1157-FRANKFURT_1-01-137,Barani A,24.195,2.367,87.722,56.43,-151.03,0.6,17.018,1.177,67.461,46.87,-182.16,-13.09,5.153,1.927,41.866,14.7,-241.61,-0.9,-5.789,5.361,17.339,-27.61,-319.62,18.07,-7.564,3.838,-2.063,-18.74,-335.97,38.23,-3.005,-2.204,-6.634,-3.41,-293.8,58.89,-5.127,0.202,-3.312,-9.25,-205.22,87.82,-6.813,1.514,-5.598,-16.08,-137.91,72.75,-6.521,2.439,-6.754,-18.42,-93.68,83.24,-5.543,1.697,-6.116,-16.68,-70.44,91.2,-4.906,1.605,-5.795,-12.8,-61.5,89.76,-4.478,0.302,-6.047,-22.32,-62.55,90.73,-4.965,0.386,-4.904,-47.92,-85.45,111.13,-5.041,-0.157,-4.726,-92.18,-136.3,136.05,-4.114,1.58,-6.552,-141.78,-221.47,142.47,-3.57,2.652,-8.197,-151.71,-252.95,147.44,-2.681,1.682,-11.739,-151.05,-216.61,162.75,-2.513,1.459,-11.093,-161.76,-185.61,196.44,-2.129,0.753,-9.532,-162.31,-178.47,226.5,-2.304,1.154,-9.506,-159.23,-165.16,253.87,-2.294,0.094,-10.037,-153.81,-132.26,269.75,-2.467,-0.592,-9.401,-150.47,-88.6,287.07,-2.816,-0.497,-9.143,-140.83,-52.9,299.51,-3.35,-0.908,-9.172,-123.0,-15.63,307.93,-3.905,-2.11,-8.748,-107.69,29.74,312.86,-3.914,-2.635,-8.606,-94.04,71.73,309.65,-3.597,-3.467,-8.273,-81.7,111.51,289.98,-3.51,-4.402,-7.569,-73.78,143.61,258.34,-3.175,-4.496,-6.948,-76.03,165.96,227.48,-2.83,-4.309,-6.415,-72.54,174.84,192.03,-2.514,-3.738,-5.708,-70.72,176.23,157.79,-2.301,-3.104,-5.802,-66.11,170.32,131.85,-2.784,-3.122,-5.544,-54.76,160.16,104.9,-3.387,-1.934,-6.394,-43.59,159.95,84.08,-3.962,-1.612,-5.901,-26.54,160.21,67.96,-4.208,-1.847,-5.739,-19.28,162.93,47.66,-4.989,-1.587,-6.314,-16.96,174.54,36.65,-5.336,-1.841,-5.932,-11.9,177.72,27.75,-5.279,-2.168,-4.982,-10.0,175.33,13.31,-4.717,-2.245,-5.297,-15.99,183.46,-2.06,-4.79,-1.834,-6.17,-31.81,198.41,-3.53,-6.193,-1.195,-5.393,-36.8,227.58,9.6,-7.012,-0.169,-3.099,-19.97,248.81,19.31,-5.817,0.179,-0.282,6.97,270.07,16.1,-4.3,-0.583,1.074,12.78,293.66,3.55,-3.217,-3.853,2.865,3.92,337.07,-18.21,-0.03,-4.055,9.638,-18.13,397.86,-37.3,4.344,0.234,26.209,-47.91,423.1,-47.47,5.088,3.206,58.669,-45.66,330.03,-53.46,6.552,3.922,85.285,-39.36,250.34,-49.85
0609-1-01-450,Doppelsalto B,21.184,0.266,86.208,28.0,249.3,-3.06,5.364,0.141,59.175,23.8,341.71,-36.73,-4.803,0.537,33.745,14.37,326.17,-35.55,-5.0,0.749,11.907,-0.66,232.81,-5.87,-0.849,3.03,-4.593,12.3,181.7,-16.83,-3.145,-3.042,0.559,12.29,148.67,-64.98,-2.858,-1.579,3.263,-10.28,32.2,-41.1,-7.925,1.659,-10.088,-16.56,-73.78,-28.12,-8.707,-0.663,-20.958,6.54,-149.28,-21.67,-16.026,1.978,-10.924,-2.39,-138.55,-36.44,-13.969,0.182,-11.432,-13.21,-45.84,-30.68,-8.95,0.032,-4.094,-37.32,127.8,-20.43,-9.096,-0.018,-0.765,-48.81,293.68,-4.33,-16.021,-1.041,-3.216,-44.58,458.62,41.06,-23.824,-2.541,-3.413,-30.86,576.95,30.5,-29.403,-1.857,-1.8,-28.56,650.05,28.19,-35.303,-0.689,-2.852,-9.34,674.0,37.51,-37.158,-1.901,1.641,-12.64,667.43,22.1,-34.738,-2.135,1.539,-22.48,667.52,20.26,-33.318,-1.765,-1.051,-18.59,661.67,12.28,-33.515,-1.165,-2.484,-15.36,671.96,3.0,-33.983,-1.824,-3.952,-21.44,676.0,-8.12,-33.789,-2.273,-7.107,-25.67,700.51,-33.31,-34.142,-2.05,-11.11,-36.92,739.95,-1.25,-33.971,-1.985,-18.048,-22.78,787.02,1.31,-33.341,-1.213,-22.687,9.48,842.42,-6.09,-35.377,-0.551,-28.012,-0.2,846.9,-0.7,-35.877,0.729,-28.47,24.17,812.24,31.0,-32.665,-0.159,-29.469,66.21,807.88,24.1,-35.471,-0.669,-32.351,90.05,748.73,-11.1,-32.38,-0.934,-30.364,73.07,729.19,-34.8,-26.981,3.127,-22.465,52.24,637.4,2.06,-16.456,2.867,-11.32,73.12,523.03,-12.28,-14.67,0.515,-9.687,69.68,467.77,-39.16,-11.89,0.317,-3.999,55.61,393.18,-35.85,-5.94,0.924,-2.756,64.18,315.56,-24.35,-2.366,-0.416,-6.587,58.68,267.07,-16.48,-0.28,-0.063,-6.882,44.97,210.97,-19.33,-0.804,-0.976,-9.308,42.03,164.08,-37.45,-1.871,-0.724,-11.634,32.28,146.66,-50.98,-2.07,-0.628,-9.252,12.97,125.52,-50.7,-3.322,-0.065,-9.045,-1.66,106.8,-43.0,-5.21,-0.772,-8.889,-14.97,108.7,-25.72,-6.736,-0.272,-7.2,-15.25,119.21,7.1,-8.726,-0.286,-5.147,-16.85,158.23,24.48,-8.819,-1.713,-0.655,-5.03,191.54,20.66,-3.11,-3.092,5.207,-5.22,222.82,22.47,8.67,1.03,24.15,3.08,233.64,22.32,16.277,1.347,53.39,18.96,225.65,-29.58,35.03,-0.521,83.501,46.83,120.8,-2.8
0115-CHARI-05-87,Salto B,16.269,3.845,89.698,-7.49,131.55,-28.6,6.599,3.087,64.141,-10.43,182.45,-10.65,3.347,2.933,36.293,-20.15,175.17,8.88,4.674,1.03,11.252,-14.44,103.32,-3.02,0.402,-0.772,-1.408,-16.57,79.83,4.55,-0.539,0.851,3.188,-4.52,46.98,8.16,-7.27,0.181,7.328,13.69,-63.55,11.67,-15.565,-0.123,-0.425,18.55,-201.58,20.67,-21.339,1.635,-7.264,16.55,-244.49,51.89,-15.928,-0.802,-11.037,20.58,-179.99,69.79,-1.233,-1.825,-8.727,14.64,-83.57,39.46,9.827,-2.232,-5.179,10.79,75.55,-5.43,13.0,-1.87,-9.88,11.14,248.04,-42.23,7.156,-0.139,-14.167,19.43,444.47,-65.57,-1.232,-0.347,-14.761,21.26,579.68,-86.65,-7.134,-1.367,-17.003,-6.48,591.76,-92.38,-14.323,-0.457,-19.527,-34.03,539.52,-67.65,-17.925,0.409,-18.419,-38.25,498.34,-30.48,-18.579,0.603,-17.398,-42.52,462.67,-2.31,-19.186,2.266,-17.092,-35.98,441.52,22.65,-18.493,0.491,-11.582,-28.33,438.73,17.84,-14.931,-0.781,-2.959,-28.02,417.53,-1.79,-11.013,0.139,2.728,-35.87,351.32,-1.59,-6.346,-0.408,3.772,-26.94,259.46,-16.1,-2.493,0.667,1.182,-15.39,184.02,-9.25,-1.097,1.809,-3.066,2.1,152.86,5.43,-0.485,1.197,-3.766,12.65,145.96,12.87,-0.367,0.212,-4.637,13.98,150.08,8.82,-1.267,1.022,-4.976,11.34,155.72,5.15,-1.35,0.783,-4.409,9.08,164.3,2.07,-1.677,0.699,-4.064,6.09,170.23,-1.07,-1.641,0.566,-3.568,5.3,161.2,-0.28,-1.648,0.827,-3.461,8.01,155.72,0.89,-2.534,1.176,-4.297,12.86,158.29,8.51,-3.249,0.634,-4.058,16.67,155.53,5.2,-3.686,-0.018,-3.203,17.72,144.34,-3.0,-3.558,0.59,-2.566,13.53,126.88,-14.41,-3.26,0.944,-2.386,11.8,116.52,-21.76,-3.007,1.008,-2.476,8.57,103.09,-26.35,-3.382,0.526,-2.144,3.99,93.7,-26.04,-3.98,0.741,-1.344,-4.99,80.24,-9.03,-3.995,0.582,-0.766,-10.43,81.82,-14.33,-4.005,0.492,-0.286,-12.63,91.37,-19.6,-3.527,0.765,-0.799,-8.74,105.07,-10.85,-3.21,-0.119,-0.254,1.01,125.89,-1.12,-1.838,0.538,1.732,14.23,135.77,2.02,3.427,0.474,8.441,24.62,147.14,-30.41,10.327,0.204,30.308,1.43,154.81,-80.34,17.98,1.643,55.71,-31.62,109.6,-83.12,27.692,3.668,89.462,-33.51,48.68,-74.99
20190930-1247-FRANKFURT_2-01-223,Rudi,21.899,4.31,92.601,2.11,14.26,24.93,12.779,5.384,68.714,-1.67,-79.81,37.2,7.765,5.872,39.768,2.31,-204.18,74.44,-1.05,3.435,13.635,-10.03,-271.5,130.05,-8.63,-1.348,-2.471,-20.71,-252.0,131.94,-9.545,-3.42,0.737,-10.09,-310.22,60.69,-14.535,-1.823,-0.81,-46.79,-371.36,41.2,-11.241,3.855,-4.348,-51.54,-378.28,75.65,-8.885,5.544,-5.912,-51.66,-315.01,161.61,-7.386,2.836,-7.061,-46.98,-283.92,220.89,-6.992,0.656,-8.85,-53.67,-239.82,269.04,-7.9,0.602,-8.603,-51.37,-182.79,303.73,-8.318,-1.035,-7.162,-25.08,-118.86,331.39,-7.145,0.358,-5.015,5.43,-62.44,374.24,-6.705,5.704,-2.925,35.53,-27.81,462.9,-6.077,7.256,-1.414,72.36,-53.71,527.04,-7.672,4.215,-2.402,120.38,-69.93,570.56,-10.489,1.811,-4.5,154.61,-56.26,605.82,-11.775,0.68,-5.664,168.89,-19.7,611.12,-13.705,2.006,-7.882,226.66,9.38,575.28,-11.664,2.487,-2.552,314.01,33.81,553.81,-13.238,6.739,3.154,361.34,68.68,554.4,-15.71,6.045,7.816,397.38,38.13,535.39,-15.699,1.91,10.715,413.5,-14.0,521.91,-16.354,-0.597,9.61,407.66,-61.71,524.29,-17.269,-4.102,8.027,385.87,-118.48,555.31,-16.689,-5.817,3.14,340.52,-151.35,590.91,-15.642,-5.824,-0.541,288.79,-185.49,622.36,-15.407,-6.236,-4.237,249.21,-171.9,638.79,-14.151,-7.638,-6.367,219.42,-93.57,626.85,-12.403,-9.521,-5.896,179.87,6.67,599.63,-8.677,-10.46,-4.706,139.34,74.04,549.56,-5.018,-10.684,-3.879,105.67,121.47,463.23,-2.246,-8.191,-4.329,76.25,162.85,358.47,-2.888,-4.629,-4.922,48.51,192.16,262.41,-3.893,-2.473,-4.618,33.78,243.98,190.27,-3.959,-0.943,-4.76,12.33,261.28,147.25,-5.095,-0.11,-4.385,10.81,265.3,136.75,-4.96,-1.62,-4.359,9.66,268.28,111.48,-4.776,-2.231,-4.194,1.15,254.98,94.93,-4.631,-2.011,-4.461,-10.24,249.2,69.95,-3.711,-1.307,-4.638,-22.39,256.16,68.42,-3.035,-0.809,-5.131,-30.96,240.92,83.18,-3.398,-0.208,-4.444,-33.37,240.13,78.88,-3.416,0.216,-3.366,-26.61,250.87,67.8,-0.249,-1.689,-2.431,-8.57,277.23,29.93,3.814,-1.92,-0.778,7.32,324.15,34.88,0.92,-2.726,8.261,84.41,382.5,61.89,4.915,-0.74,43.028,147.02,288.49,-113.95,19.768,5.354,78.086,97.03,251.09,-4.81
20190930-1247-FRANKFURT_2-01-271,Salto C,15.676,13.433,90.107,33.24,186.46,-22.69,9.602,11.97,67.288,54.41,193.19,2.37,6.089,6.804,40.398,47.9,183.95,10.54,2.504,1.592,16.96,14.3,98.11,1.9,-2.321,-1.749,0.174,-27.88,13.15,7.09,-5.544,-2.996,-7.696,-36.12,-28.65,1.73,-8.361,-3.17,-5.876,-33.29,-47.69,-18.5,-8.26,-0.476,-4.461,-35.75,-62.27,9.89,-7.56,0.775,-7.172,-30.0,-78.61,19.23,-5.634,-0.133,-8.763,-14.8,-74.17,20.3,-3.651,-0.567,-8.089,-3.4,-30.13,4.86,-1.539,-1.268,-7.068,7.46,33.85,-18.68,1.093,-1.864,-7.247,13.48,115.42,-43.6,1.493,-0.911,-10.908,11.34,273.47,-59.91,-3.093,-1.752,-15.899,12.49,450.8,-77.67,-7.8,-2.203,-17.315,0.51,562.93,-70.32,-12.396,-0.528,-15.645,-4.21,595.09,-55.27,-15.305,-0.846,-14.974,0.9,601.64,-42.05,-20.845,-1.6,-18.947,7.81,644.2,-25.63,-26.045,-1.702,-25.541,6.52,684.18,-3.06,-30.269,0.371,-30.023,2.05,607.34,-0.9,-28.757,1.05,-11.309,12.86,411.52,-70.05,-10.693,-0.189,21.621,-21.64,431.07,-167.87,-6.314,1.178,1.855,-40.83,255.49,-9.17,-6.14,-1.025,5.913,-24.33,177.93,-36.04,-0.785,0.149,-1.644,-26.57,134.75,-1.08,0.292,0.213,-4.582,-23.35,103.48,21.09,0.558,-0.171,-3.633,-20.53,110.28,31.03,-0.051,-0.667,-4.241,-17.27,108.65,33.42,-0.234,-1.01,-4.541,-17.95,113.49,25.72,-0.804,-0.949,-3.742,-18.04,114.54,18.45,-0.896,-0.564,-3.417,-14.42,113.72,21.77,-1.124,-0.657,-3.792,-9.71,112.51,26.13,-1.036,-0.829,-3.736,-4.16,110.82,26.16,-1.107,-1.007,-3.866,-3.19,110.29,23.99,-1.278,-0.78,-3.848,-1.32,108.98,18.11,-1.472,-0.518,-3.793,1.05,104.8,14.92,-1.949,-0.335,-4.032,5.48,100.18,15.69,-2.46,-0.4,-4.51,10.91,98.34,17.2,-3.308,-0.645,-4.571,13.76,102.76,20.42,-4.386,-0.746,-4.458,12.69,114.43,24.77,-5.393,-0.244,-3.517,10.08,118.66,24.69,-5.984,0.374,-1.868,6.55,111.82,10.06,-5.334,0.145,0.488,13.43,105.06,-15.4,-0.253,-1.097,4.644,16.6,122.47,-30.25,10.418,-2.686,7.725,14.85,151.47,-41.32,11.033,-1.042,5.85,7.05,258.02,10.77,12.064,2.322,10.022,36.58,337.65,40.81,17.637,4.329,49.552,142.79,249.87,-1.62,29.974,10.034,84.989,95.73,107.43,-5.2
20191007-1150-FRANKFURT_2-01-120,Rudi,20.031,1.619,78.404,11.68,-72.25,12.19,15.12,0.856,64.4,11.83,-140.62,20.5,8.146,-0.458,44.531,10.73,-202.77,61.16,0.51,-0.055,23.598,2.81,-281.29,85.94,-4.972,-0.102,5.734,-11.3,-330.97,94.64,-7.62,1.856,-5.532,-35.44,-327.29,155.93,-6.667,3.97,-5.999,-66.71,-338.84,194.58,-8.343,3.239,-1.545,-80.0,-363.54,219.94,-9.861,4.12,-4.539,-93.03,-349.91,274.53,-8.714,5.883,-7.657,-87.4,-307.26,255.56,-9.407,5.659,-7.516,-87.82,-250.31,333.28,-9.326,9.584,-7.242,-107.74,-199.56,464.05,-11.958,13.85,-6.414,-98.27,-173.06,523.93,-17.226,13.994,-5.17,-69.73,-160.48,579.56,-20.284,11.591,-4.229,-8.21,-156.85,610.62,-20.473,9.738,-5.744,53.36,-134.99,666.33,-21.62,11.02,-6.155,94.71,-111.61,738.95,-27.956,8.637,-5.593,152.23,-58.21,678.56,-28.765,1.402,-4.324,207.9,4.64,671.99,-24.707,-2.528,0.23,255.78,40.12,698.21,-23.151,-0.714,3.369,296.89,55.72,732.56,-23.988,1.694,6.604,350.33,38.08,780.41,-25.337,1.638,9.051,381.29,-17.36,817.01,-27.335,-1.078,8.552,371.14,-89.73,831.06,-26.958,-3.722,5.714,316.15,-115.55,820.78,-24.266,-2.064,1.051,245.1,-116.42,834.32,-25.218,-0.828,-3.851,186.49,-102.65,843.62,-23.472,-5.225,-6.435,128.77,-26.29,799.16,-19.039,-5.857,-9.017,62.13,49.0,731.45,-16.941,-5.874,-9.969,14.4,138.97,614.56,-12.042,-6.128,-10.307,-20.4,194.23,502.0,-9.802,-6.052,-10.258,-44.52,205.85,428.54,-9.464,-2.77,-9.585,-44.59,191.56,385.91,-11.441,0.529,-7.818,-20.39,168.29,350.88,-13.335,0.046,-6.817,13.8,185.24,315.86,-14.489,-0.542,-5.285,35.91,209.82,267.43,-11.583,-3.533,-5.483,43.85,234.87,205.88,-11.364,-4.272,-5.779,27.33,233.04,159.64,-8.835,-3.272,-4.967,15.45,236.94,119.42,-7.294,-2.151,-4.713,26.69,239.74,105.16,-6.929,-3.411,-4.576,42.03,258.97,75.01,-7.56,-3.121,-3.426,35.71,282.56,78.82,-8.354,-0.935,-2.168,41.21,300.41,109.34,-8.272,0.279,-0.849,73.14,320.75,127.73,-5.436,-1.061,0.113,98.84,348.88,110.96,-1.074,-3.587,3.682,116.68,349.42,52.05,7.258,-4.023,15.24,133.14,304.28,-21.54,16.271,-2.418,32.713,118.75,294.01,-46.62,19.851,0.769,51.624,89.62,238.31,-64.25,24.27,0.556,76.141,37.84,165.27,-69.46
0609-4-01-518,Barani C,30.444,0.271,84.36,5.49,10.69,0.86,17.901,2.236,61.571,20.86,-69.06,-0.06,10.304,0.216,35.731,35.07,-151.69,-1.06,3.741,-1.118,11.904,36.41,-208.66,5.6,-3.671,0.27,-2.978,31.9,-246.28,30.0,-8.81,2.173,-4.846,33.37,-310.78,71.18,-13.618,0.233,2.258,40.09,-350.8,29.97,-17.502,-0.955,0.651,19.11,-359.36,58.99,-16.147,-1.037,-2.12,6.49,-398.1,73.32,-12.295,1.549,-4.357,-4.97,-390.02,100.16,-8.054,1.375,-5.384,-17.32,-360.76,117.59,-3.964,-1.145,-6.154,-20.47,-316.68,113.65,-4.089,-1.868,-5.941,-39.06,-235.59,117.85,-5.398,-0.031,-9.55,-43.42,-146.74,147.26,-5.657,3.114,-11.37,-9.25,-87.88,153.41,-7.949,3.536,-10.83,27.36,-56.04,133.04,-5.989,2.422,-7.56,-3.18,-73.91,174.17,-7.387,4.435,-6.044,-24.34,-92.27,225.23,-7.686,2.137,-9.641,-20.54,-92.04,245.29,-5.915,-1.858,-4.617,-53.25,-103.28,255.59,-1.814,-1.729,-3.822,-100.12,-113.78,279.56,-2.441,-0.198,-10.903,-111.27,-78.39,273.66,-4.069,0.017,-10.232,-104.43,-30.36,263.14,-4.556,-0.925,-7.075,-108.02,1.82,263.94,-4.302,-1.376,-5.672,-116.0,16.75,266.54,-4.143,-1.952,-5.899,-113.56,31.0,256.65,-3.938,-1.946,-6.79,-107.38,51.4,244.63,-3.518,-1.782,-6.419,-96.74,78.4,233.44,-2.967,-1.267,-5.931,-87.69,99.77,221.14,-2.868,-1.129,-5.676,-79.67,114.54,209.71,-3.093,-1.581,-5.45,-72.54,127.31,195.35,-3.208,-1.811,-4.808,-66.1,133.32,180.14,-2.977,-1.751,-4.128,-55.73,133.25,161.09,-2.696,-1.272,-3.366,-40.52,126.78,147.65,-2.403,-0.825,-4.254,-29.89,121.01,132.37,-2.477,-0.823,-4.408,-26.15,119.26,122.57,-2.559,-0.567,-4.093,-22.95,116.97,109.4,-2.753,-0.248,-4.59,-14.32,112.67,99.28,-3.133,-0.326,-4.737,-1.43,106.12,86.6,-3.606,-1.032,-4.739,8.91,107.55,66.67,-4.417,-1.2,-4.427,12.14,115.24,54.25,-5.288,-0.885,-3.745,10.38,126.02,52.07,-6.359,-0.419,-3.169,16.74,136.72,54.8,-7.429,-1.268,-2.136,29.15,151.33,56.94,-6.71,-2.73,-0.208,32.75,161.59,42.89,-2.615,-2.843,3.932,36.57,170.15,18.4,3.529,-2.391,8.403,28.72,190.95,-10.74,12.069,-1.049,23.638,17.05,236.06,-17.42,21.518,0.458,53.654,11.47,210.98,-1.98,36.525,1.167,79.691,1.8,100.88,-10.99
20191007-1159-FRANKFURT_1-01-385,Barani C,28.449,-4.937,85.777,6.3,-117.83,-72.91,22.041,-3.51,67.458,23.96,-167.64,-70.12,6.903,-2.557,44.052,39.75,-253.02,-51.81,-9.651,-1.076,19.783,59.73,-355.63,-19.48,-20.264,-0.646,-1.243,73.63,-436.55,15.2,-19.495,-1.715,-10.203,68.33,-475.23,31.88,-16.2,-2.541,-6.316,49.17,-483.42,33.52,-14.265,-2.28,-4.064,34.5,-478.93,36.06,-12.566,-1.178,-4.24,31.4,-442.07,40.18,-9.649,-1.049,-5.875,30.31,-412.42,43.36,-6.483,-0.393,-6.837,18.69,-390.84,52.75,-5.398,-0.758,-5.913,2.2,-359.88,56.48,-5.947,0.352,-6.844,-4.0,-297.02,69.08,-6.152,0.94,-9.12,8.51,-205.18,92.06,-6.345,1.542,-9.8,15.56,-119.09,140.47,-7.259,5.784,-9.729,24.56,-62.21,217.27,-8.538,6.423,-10.486,40.77,-32.43,280.52,-10.038,7.748,-13.376,39.51,-2.39,355.85,-8.989,2.936,-9.672,30.47,-7.82,391.04,-6.65,-2.041,-0.971,-14.97,-18.78,382.22,-4.157,-1.202,-6.588,-61.81,0.98,385.8,-4.387,-0.874,-8.275,-77.77,29.29,363.11,-4.611,-1.66,-6.824,-98.19,51.7,343.39,-4.188,-2.684,-6.67,-115.06,59.89,316.41,-3.791,-3.395,-6.853,-118.51,77.16,287.52,-3.977,-2.634,-6.352,-110.51,94.89,275.28,-4.433,-2.941,-5.95,-90.76,107.91,264.18,-4.115,-3.75,-5.145,-70.02,119.09,247.37,-3.61,-4.339,-4.034,-50.36,113.41,225.98,-3.237,-4.704,-3.471,-35.08,103.86,195.98,-2.412,-4.258,-4.64,-20.49,101.18,161.91,-1.787,-4.354,-5.862,-14.21,100.08,118.85,-2.054,-2.932,-4.922,-15.06,94.89,81.69,-2.12,-2.297,-4.848,-14.78,97.06,44.13,-2.197,-1.913,-5.969,-18.33,108.08,24.81,-3.118,-1.178,-4.994,-22.64,112.79,20.34,-3.569,-1.219,-3.988,-21.71,122.02,8.56,-4.778,-1.492,-4.672,-24.6,140.0,-9.25,-6.153,-1.556,-3.862,-34.61,182.52,-23.43,-6.678,-0.829,-3.092,-42.31,210.32,-18.98,-7.123,-0.524,-2.075,-43.22,234.32,-1.39,-7.166,-1.077,-0.91,-40.13,259.21,23.39,-6.68,-1.593,1.518,-35.06,272.46,35.46,-5.041,-1.804,2.553,-30.42,296.0,46.84,-1.98,-2.447,3.281,-24.0,328.19,35.65,2.802,-2.697,5.095,-30.79,369.91,22.5,5.497,-2.499,8.831,-33.82,394.18,-13.76,3.478,-2.048,23.259,-44.75,331.9,-54.26,4.133,-1.121,56.414,-71.39,212.01,-60.07,9.965,0.196,85.669,-39.34,156.8,-36.46
20191007-1534-FRANKFURT_2-01-95,Schraubensalto A,2.57,9.864,80.181,-14.54,197.4,-13.18,-1.889,8.971,64.223,-11.43,243.24,5.7,-2.112,6.863,42.091,0.47,286.51,31.97,-3.338,4.44,19.358,31.99,286.08,46.61,-2.66,-0.158,3.318,56.12,270.08,10.47,-2.316,-2.392,-6.563,57.7,274.28,44.35,-3.165,2.098,-2.636,72.62,268.72,64.31,-1.428,2.741,1.123,105.59,230.25,117.71,-1.882,1.441,-1.768,139.99,192.58,189.19,-3.133,1.785,-2.247,173.99,150.03,235.3,-3.849,0.822,-1.61,186.61,107.54,278.02,-3.889,-2.835,-3.141,175.93,62.48,314.31,-4.625,-4.753,-5.015,176.29,34.06,312.71,-5.439,-3.771,-3.272,192.24,20.85,304.9,-5.916,-2.751,-2.039,209.53,2.05,308.89,-6.329,-1.668,-1.095,236.04,-23.79,320.71,-6.997,-1.6,-0.918,257.24,-57.37,346.04,-7.893,-2.085,-0.858,264.39,-91.82,366.08,-9.258,-1.785,-0.967,252.16,-122.39,390.56,-10.103,-2.718,-2.106,214.94,-155.07,407.57,-9.19,-4.235,-4.669,161.95,-181.0,403.87,-8.809,-2.251,-6.504,103.1,-191.94,407.65,-9.05,-1.452,-8.455,38.39,-188.48,418.95,-8.842,-1.516,-9.868,-17.88,-169.39,424.61,-8.003,-1.752,-10.928,-63.02,-139.72,433.39,-7.25,-2.749,-11.486,-96.2,-106.24,428.2,-6.177,-2.95,-11.566,-121.44,-67.34,420.94,-5.817,-3.066,-11.429,-134.75,-29.51,407.31,-5.411,-3.318,-10.636,-139.3,4.79,385.08,-5.683,-3.386,-9.998,-131.22,32.68,364.55,-5.702,-3.541,-9.824,-115.56,57.83,340.44,-5.728,-3.52,-9.467,-94.54,85.1,318.21,-5.467,-3.613,-8.65,-73.83,109.39,297.4,-5.448,-3.984,-8.424,-51.57,135.79,275.29,-5.672,-3.53,-7.979,-33.19,155.28,250.97,-5.909,-3.198,-6.571,-15.46,167.79,226.7,-5.813,-2.49,-7.123,-0.07,178.58,199.09,-6.328,-2.525,-6.59,13.94,189.37,172.08,-6.335,-2.504,-5.306,20.33,192.17,139.35,-6.541,-1.695,-5.902,29.47,198.95,97.95,-7.037,-2.316,-6.631,28.08,220.39,58.94,-7.486,-2.192,-6.023,17.47,228.13,33.18,-9.183,-1.561,-4.786,12.18,254.16,20.93,-9.119,-0.798,-2.324,17.91,268.36,22.74,-7.714,-0.647,0.525,32.78,262.82,34.54,-4.658,-3.055,4.333,55.7,272.97,23.53,1.197,-2.659,12.073,74.78,300.64,-1.32,8.141,1.702,26.965,84.64,306.05,-31.69,13.341,5.506,45.938,67.61,283.67,-73.06,16.026,10.703,73.006,40.07,233.02,-59.13
0609-4-01-412,Salto C,45.877,2.274,79.141,4.59,235.77,11.14,22.949,0.937,56.386,13.25,252.48,1.56,7.666,-1.217,31.457,11.53,221.86,-18.0,1.09,-0.995,11.533,-10.83,166.97,-2.39,-3.772,0.767,-1.755,-21.28,30.72,7.82,-5.451,-0.007,-6.883,-1.82,-82.12,-27.75,-4.669,-1.901,-4.333,-9.21,-73.97,-9.63,-4.166,-0.747,-3.894,-29.22,-73.09,29.95,-2.524,0.838,-7.537,-28.02,-73.68,27.16,-1.377,0.051,-7.659,-13.89,-19.39,18.49,-3.135,-0.71,-5.481,-5.92,76.88,28.91,-4.718,-1.534,-3.75,-7.48,193.76,10.66,-4.642,-0.967,-10.29,-4.87,363.58,12.43,-11.881,-0.04,-11.229,10.71,498.47,9.4,-15.338,-0.805,-4.895,-1.05,513.11,-4.4,-12.439,-0.93,-3.402,-1.7,485.39,9.64,-12.526,-0.362,-4.937,5.96,475.05,10.11,-14.063,-0.567,-4.602,5.73,465.14,10.61,-15.012,-0.227,-2.972,7.92,450.57,7.08,-12.406,-1.815,-2.304,12.17,422.63,-5.32,-9.608,-1.077,-5.551,4.33,394.58,-15.9,-8.419,-0.216,-8.864,-11.67,391.75,-10.13,-7.85,-0.366,-6.139,-21.25,362.32,-1.53,-6.238,-0.515,4.394,-18.63,290.7,11.07,-1.604,-0.393,1.388,-14.98,189.97,19.42,-2.593,-0.627,-2.679,-15.24,169.28,15.37,-1.997,-1.308,0.151,-27.28,143.71,12.89,-0.34,-0.363,-0.43,-20.83,107.98,17.68,-0.151,-0.572,-2.79,-7.42,93.38,13.39,-0.725,-0.818,-2.955,-3.75,90.45,9.92,-0.841,-0.901,-2.27,-3.52,79.5,4.04,-0.968,-0.695,-2.807,0.18,72.92,-1.79,-0.906,-0.806,-2.34,6.32,69.03,-4.96,-0.845,-0.823,-2.778,5.5,66.82,-9.44,-1.17,-0.469,-2.747,6.15,71.63,-11.68,-1.323,-0.399,-2.029,3.52,71.15,-8.42,-1.151,-0.188,-1.845,-0.7,67.68,-2.25,-1.113,-0.042,-2.317,-1.9,66.39,5.19,-1.455,-0.13,-2.792,-3.07,69.83,10.3,-1.712,-0.477,-2.805,-4.38,72.39,11.55,-1.954,-0.598,-2.972,-4.97,73.52,16.59,-2.431,-0.298,-3.98,0.49,83.13,23.21,-3.348,-0.731,-3.008,13.56,90.75,29.01,-4.127,-0.47,-2.857,24.5,103.72,35.65,-3.588,-0.709,-1.033,31.74,114.59,13.77,2.473,-0.332,3.108,24.8,119.27,2.6,6.328,-2.871,1.599,21.1,198.08,-26.53,6.776,-3.295,12.162,4.73,324.08,-43.3,25.835,-0.685,52.269,5.97,287.72,-56.2,50.664,1.579,81.857,-10.85,137.67,-28.49
20190930-1153-FRANKFURT_1-01-238,Salto B,22.199,-2.364,82.992,15.27,153.68,-25.1,11.168,-0.499,62.503,18.42,157.29,-21.83,3.549,-1.486,36.673,12.44,147.81,7.87,0.869,-0.407,14.368,2.51,129.43,26.34,-1.031,-0.63,-0.737,11.03,58.97,-6.31,-3.168,-1.125,-2.283,-7.17,17.75,-9.92,-4.901,0.896,4.111,-14.66,-43.64,13.13,-12.971,-0.165,0.318,-4.09,-144.08,23.68,-16.144,0.267,-6.827,-20.71,-185.19,14.01,-14.098,-1.079,-6.648,-25.74,-182.63,-13.56,-9.51,-0.958,-7.376,-30.2,-134.23,-14.52,1.183,1.1,-6.141,-27.3,-71.1,0.74,12.232,1.794,-4.876,-10.03,46.03,46.19,13.407,-0.604,-9.991,20.52,168.79,79.96,7.361,-2.719,-21.315,57.72,316.84,64.06,-5.404,-0.871,-21.967,99.94,487.99,25.94,-14.848,2.61,-22.807,115.66,623.37,1.01,-20.868,3.595,-24.312,110.47,669.32,-3.25,-26.374,4.647,-23.607,105.82,684.8,8.55,-28.43,6.307,-20.766,118.94,643.51,19.64,-27.295,2.914,-19.348,109.98,594.97,2.53,-23.827,1.214,-17.809,88.85,548.8,-9.44,-22.281,0.604,-14.513,69.14,523.25,-19.68,-18.611,1.705,0.395,71.52,450.12,-23.41,-12.601,2.228,3.999,73.48,340.11,-12.66,-7.98,0.917,4.825,67.85,249.25,-19.52,-1.795,-0.286,0.939,54.18,171.51,-11.81,1.553,-0.942,-3.212,45.36,146.03,-5.11,2.052,-1.897,-5.373,37.47,136.36,-2.54,0.362,-0.992,-5.312,33.91,139.61,-4.14,-0.898,-0.564,-4.474,37.05,143.85,-0.67,-1.838,-1.016,-3.502,36.63,140.07,-6.2,-1.806,-0.869,-3.781,31.05,132.74,-13.92,-1.231,-0.531,-3.196,22.17,127.14,-14.97,-1.056,-0.568,-3.475,15.0,123.51,-10.89,-1.075,-0.728,-3.777,7.92,117.58,-4.45,-0.8,-1.235,-4.014,-2.6,102.11,-1.4,-0.949,-0.736,-4.577,-12.84,92.12,-3.45,-1.176,-0.516,-4.693,-21.16,88.85,0.66,-2.02,-0.404,-4.396,-18.14,85.9,9.41,-2.977,-0.263,-4.438,-11.23,87.26,13.25,-3.824,-0.665,-4.04,0.15,83.72,17.06,-5.23,-1.04,-3.192,10.46,84.26,20.17,-6.527,-0.446,-2.052,19.12,91.28,19.08,-5.929,-0.617,0.401,24.8,99.04,7.89,-2.684,-1.455,4.142,26.96,109.55,-22.31,6.896,-1.537,11.774,17.02,133.8,-65.58,15.09,-0.645,21.062,16.01,198.15,-83.77,19.67,-2.06,50.804,23.72,239.54,-64.28,29.069,-1.123,83.339,18.79,133.92,-54.64
0115-CHARI-05-133,1 3/4 Salto vw C,19.067,6.536,90.954,34.65,-89.5,5.01,12.619,6.536,66.751,43.82,-153.41,47.26,3.877,2.636,35.687,29.65,-273.22,74.88,-5.617,-0.777,7.766,-16.41,-368.44,84.54,-10.622,0.812,-1.961,-51.96,-386.52,35.51,-15.15,-0.342,-1.701,-48.45,-426.08,-29.5,-19.434,0.619,-2.186,-24.61,-474.89,-28.7,-24.186,0.342,0.213,7.26,-511.6,-29.65,-29.37,-1.272,-2.038,22.1,-585.05,-10.61,-33.29,-1.257,-7.546,28.13,-651.3,12.12,-36.195,-2.795,-11.756,46.88,-680.23,14.39,-39.415,-1.978,-14.299,47.91,-647.75,49.46,-43.526,-2.825,-13.702,45.18,-647.92,51.75,-45.119,-2.456,-15.726,33.07,-692.17,62.32,-44.578,-1.443,-17.562,24.96,-716.95,72.18,-40.752,-1.279,-19.288,18.65,-714.11,79.33,-31.04,-1.277,-20.32,2.1,-637.1,55.68,-20.395,-1.652,-17.896,-5.19,-458.92,28.22,-15.027,-0.965,-15.229,-10.36,-284.44,1.75,-11.956,-0.609,-13.552,-15.74,-141.82,-7.23,-8.746,-0.036,-11.636,-17.17,-66.49,-8.72,-6.746,-3.85,-9.364,-6.32,-54.3,-46.17,-2.848,-1.839,-13.789,-21.53,-30.76,-54.01,3.87,-0.63,-11.431,-14.94,-26.98,-41.74,1.776,2.68,-6.903,-1.2,-53.19,-20.42,1.379,1.47,-4.427,13.04,-124.95,-2.24,0.242,1.459,3.359,19.52,-220.63,3.06,2.352,-0.676,-2.646,11.76,-292.63,9.66,-1.716,0.801,-4.003,-0.33,-266.37,2.24,-2.933,0.459,-1.405,0.44,-297.94,20.68,-3.218,0.55,-4.731,6.6,-293.23,13.13,-3.187,-0.665,-3.24,7.99,-299.12,-8.9,-3.287,-0.072,-3.103,8.85,-330.16,-12.43,-4.627,-0.059,-2.904,18.55,-352.22,-22.55,-6.605,0.071,-2.713,27.17,-373.38,-25.75,-8.728,0.05,-3.185,35.75,-394.92,-9.85,-10.007,-0.56,-4.869,39.33,-410.88,1.45,-10.544,-1.176,-6.721,30.69,-408.15,6.43,-10.441,-0.171,-8.298,21.22,-392.3,13.9,-9.5,0.453,-8.392,19.03,-380.74,16.11,-7.88,0.705,-8.033,11.4,-363.86,22.57,-6.662,0.64,-6.938,7.2,-354.67,23.18,-6.038,0.755,-5.336,4.72,-348.73,28.27,-5.988,-0.126,-4.026,1.18,-353.25,20.61,-6.939,-1.178,-2.536,-7.45,-346.18,12.22,-15.312,-6.77,-3.096,-39.88,-323.75,-8.5,-28.207,3.179,11.263,-71.15,-275.92,-114.48,-30.272,4.393,12.254,-18.22,-280.91,-72.69,-36.661,-0.896,30.04,29.83,-143.07,27.22,-53.356,-5.117,58.327,19.87,24.29,42.2
20191001-1148-FRANKFURT_1-01-95,40/,4.043,-4.914,80.569,-0.02,263.05,8.12,-3.553,-1.584,56.371,-6.35,338.51,11.12,-3.684,-2.202,32.499,-2.6,346.91,-9.98,-4.509,-2.872,13.909,-6.57,230.22,4.24,-6.414,-1.817,0.567,-6.29,261.34,5.04,-2.299,-0.664,-7.421,-4.51,355.53,-39.18,2.942,-0.472,-0.184,-21.69,238.18,-41.74,8.864,0.997,0.142,-21.11,184.01,-19.32,2.467,-0.187,-5.387,-16.29,127.22,-1.79,0.597,-1.471,-5.254,-32.09,156.26,-9.66,4.525,-0.312,-7.04,-30.79,202.16,-13.12,2.489,0.011,-8.76,-33.5,173.61,10.69,-1.159,-0.678,-8.592,-26.04,198.85,1.36,-1.092,-1.138,-7.009,-24.24,221.83,-0.63,0.757,-0.339,-7.052,-21.41,235.7,-6.22,0.786,-0.831,-7.122,-19.23,227.93,0.67,-0.383,-0.78,-7.053,-17.16,237.8,-5.02,-0.393,-0.655,-6.936,-5.48,250.75,3.63,-0.096,-1.2,-6.635,7.68,246.61,-6.68,0.292,-1.883,-7.361,-9.62,237.11,-3.42,0.352,-1.562,-7.442,-18.06,229.14,-2.27,-0.781,-1.667,-6.836,-22.68,224.27,-7.57,-0.62,-1.329,-6.307,-30.43,226.73,-9.0,-0.657,-1.53,-5.602,-30.91,213.45,-14.25,-0.981,-1.022,-5.537,-26.19,203.86,-8.89,-0.587,-1.339,-5.779,-18.2,190.32,-8.71,-1.077,-1.481,-5.481,-14.13,176.34,-9.66,-1.123,-0.862,-5.296,-10.16,162.49,-8.65,-1.485,-0.959,-5.215,-3.9,148.7,-2.26,-1.718,-1.702,-5.122,-0.04,135.82,-6.37,-1.78,-1.253,-5.156,0.83,119.4,-8.8,-2.11,-1.57,-5.944,-2.6,111.38,-14.71,-2.672,-1.823,-5.931,-11.24,106.8,-22.07,-3.137,-1.499,-5.229,-19.49,102.99,-29.28,-3.16,-1.163,-6.77,-23.62,102.45,-28.9,-3.095,-1.231,-6.084,-23.59,97.63,-21.66,-2.809,-1.073,-6.276,-21.08,105.89,-11.5,-2.697,-1.347,-6.996,-23.5,121.24,-2.65,-2.806,-0.648,-6.37,-25.48,136.03,1.24,-3.239,-1.265,-6.161,-27.28,170.54,-10.29,-4.728,-1.474,-5.56,-32.86,214.17,-16.28,-6.707,-0.645,-4.012,-39.93,245.11,-7.17,-7.744,-0.187,-2.252,-42.23,271.38,-1.0,-8.475,-0.485,-0.43,-39.13,286.62,1.37,-7.7,-1.261,2.838,-27.33,305.96,-0.33,-3.37,-1.956,7.842,-22.47,326.8,-47.36,8.081,-2.227,12.667,-43.96,322.5,-76.11,14.94,-1.048,31.186,-77.38,285.0,-21.16,21.172,0.575,60.983,-77.14,155.68,-22.7,30.119,0.891,84.423,-61.89,47.72,-51.01
20191008-1157-FRANKFURT_1-01-334,Salto A,-3.7,2.39,83.923,-17.76,240.07,-15.6,-4.365,0.883,59.509,-18.19,308.42,-16.77,-4.159,0.615,32.431,-26.43,331.35,1.89,-1.717,-0.926,9.617,-24.93,278.21,15.72,-2.45,-1.92,-4.288,-7.21,263.27,-17.25,-1.708,-1.512,-8.901,-11.85,290.26,-26.65,-1.538,0.1,-0.463,-13.58,259.95,-19.84,3.893,-1.185,1.546,-33.08,279.58,-16.46,1.052,-2.727,0.079,-31.45,215.51,-21.18,3.385,0.565,-4.341,-10.35,220.99,-28.95,5.182,0.275,-8.22,-1.07,176.67,-37.13,3.218,0.691,-8.57,-16.19,158.18,-20.1,2.038,2.464,-8.68,-4.98,166.84,28.62,2.608,-0.299,-9.537,1.8,176.86,22.66,0.382,-0.994,-8.539,-11.44,182.9,28.0,-0.176,-1.182,-8.5,-6.46,206.63,26.25,0.357,-0.564,-7.708,-2.66,216.53,20.17,-0.18,-0.724,-7.96,7.32,212.04,24.07,-0.72,-1.355,-7.149,10.31,202.49,17.05,-0.713,-0.829,-7.261,15.71,198.39,10.47,-1.657,-2.649,-7.228,17.72,204.64,-4.7,-1.635,-1.293,-7.021,13.08,212.17,-6.88,-1.713,-1.056,-6.954,17.24,213.67,-5.97,-1.71,-1.334,-6.925,22.64,217.71,-5.39,-1.74,-1.59,-6.587,24.37,214.04,-9.7,-1.914,-2.074,-6.34,22.51,209.11,-20.2,-1.844,-1.584,-6.255,13.58,204.26,-26.97,-1.698,-0.442,-5.785,5.27,193.57,-23.24,-1.399,-0.995,-6.217,0.84,177.87,-19.84,-1.676,-1.008,-6.501,-5.87,164.73,-20.43,-1.887,-1.334,-6.378,-8.66,152.82,-21.36,-2.393,-1.574,-6.497,-12.02,146.0,-19.8,-2.874,-1.038,-6.466,-13.95,141.24,-14.02,-2.966,-1.43,-6.38,-13.82,133.19,-9.93,-3.819,-1.201,-6.496,-14.92,128.63,-5.42,-4.209,-0.511,-6.824,-10.09,132.23,4.89,-5.302,-0.59,-6.164,1.8,141.74,8.89,-6.141,-0.88,-5.337,9.26,153.91,6.49,-6.23,-0.977,-4.228,11.68,166.33,-2.5,-6.486,-0.962,-3.131,7.97,182.0,-17.79,-6.83,-0.62,-2.8,5.03,210.57,-33.19,-6.496,-0.091,-0.658,5.22,227.7,-41.17,-6.01,-0.135,0.21,0.42,239.07,-40.45,-4.82,-0.643,-0.561,-1.08,240.88,-40.96,-3.652,-0.378,0.551,-6.21,257.4,-54.22,-1.183,-0.484,2.353,-15.09,284.58,-54.29,3.875,0.08,9.378,-31.15,293.04,-52.6,10.15,-0.212,33.608,-40.21,205.91,-48.88,17.429,1.721,58.055,-25.65,127.78,-27.8,23.514,6.301,80.198,-34.18,43.43,-37.73
