SprungID,Sprungtyp,Acc_x_Fil_1,Acc_y_Fil_1,Acc_z_Fil_1,Gyro_x_Fil_1,Gyro_y_Fil_1,Gyro_z_Fil_1,Acc_x_Fil_2,Acc_y_Fil_2,Acc_z_Fil_2,Gyro_x_Fil_2,Gyro_y_Fil_2,Gyro_z_Fil_2,Acc_x_Fil_3,Acc_y_Fil_3,Acc_z_Fil_3,Gyro_x_Fil_3,Gyro_y_Fil_3,Gyro_z_Fil_3,Acc_x_Fil_4,Acc_y_Fil_4,Acc_z_Fil_4,Gyro_x_Fil_4,Gyro_y_Fil_4,Gyro_z_Fil_4
0827-BK1-01-4,Salto C,-3.368,-0.622,-8.694,-11.29,126.33,3.33,-8.889,-1.195,1.144,2.19,259.78,-16.81,-1.371,-0.191,-2.745,-0.10,154.41,0.61,-3.101,-0.024,-1.276,-1.74,62.05,8.70
0827-BK1-01-7,Salto C,-1.186,-0.796,-9.778,-14.08,213.64,-15.04,-5.206,-0.539,2.219,4.63,196.63,7.49,-1.641,0.124,-2.390,-0.11,150.02,1.01,-2.105,-0.136,-1.629,-4.69,58.52,-4.96
0827-BK1-01-10,Salto C,-0.846,0.443,-9.157,-22.32,244.00,-2.69,-4.872,0.255,0.697,-6.06,212.24,-23.45,-2.011,-0.277,-2.340,-7.67,155.96,-1.76,-1.793,0.225,-2.998,-13.86,90.36,3.39
0827-BK1-01-13,Salto C,-0.304,-0.708,-9.755,-18.63,230.05,-23.47,-4.902,0.097,0.612,-3.74,207.54,-14.94,-1.769,-0.263,-2.662,-2.25,161.11,-5.88,-2.013,-0.500,-1.619,-6.39,72.74,-1.13
0827-BK1-01-16,Salto C,-2.066,-0.209,-8.822,-8.24,196.75,-15.83,-6.532,0.018,3.170,8.09,221.90,5.95,-1.734,0.085,-2.758,12.83,149.98,0.18,-2.003,-0.295,-2.481,-2.89,65.51,-11.16
0827-BK1-01-19,Salto C,-2.111,-1.030,-7.487,-27.56,153.05,1.29,-8.775,-2.193,6.548,-4.93,250.59,10.27,-1.549,-0.052,-2.011,12.44,140.24,8.58,-1.354,0.090,-2.190,9.16,83.74,4.28
0827-BK1-01-22,Salto C,-4.188,-0.267,-7.982,8.40,239.43,-3.96,-8.384,-0.679,0.136,-10.69,254.76,7.27,-1.750,0.259,-3.217,7.07,174.53,13.68,-2.715,-0.098,0.648,9.87,59.65,6.37
0827-BK1-01-24,Salto C,-3.834,-0.467,-6.060,3.84,85.50,19.01,-22.986,0.592,-12.778,4.18,449.95,-9.86,-1.657,-0.391,-1.434,14.32,101.09,7.15,-1.683,-0.241,-2.828,5.86,123.30,2.66
0827-BK1-01-26,Salto C,-3.854,-0.594,-8.436,2.37,176.85,3.09,-10.504,-0.734,1.109,2.97,275.96,18.48,-1.624,-0.188,-2.904,12.48,163.76,8.91,-3.595,-0.153,-1.499,20.81,68.68,9.01
0827-BK1-01-29,Salto C,-4.199,-1.640,-7.199,6.90,29.94,-17.65,-15.646,-1.424,-0.497,-14.73,368.55,20.87,-1.032,-0.128,-2.549,4.72,126.96,0.80,-1.739,0.139,-2.574,6.63,66.28,-7.69
0827-BK1-01-32,Salto C,-4.177,-1.139,-7.924,4.23,211.20,-18.40,-7.679,-0.338,4.273,-4.17,260.63,21.14,-2.140,-0.093,-2.715,18.60,148.63,8.92,-2.818,0.486,-2.533,-8.82,77.07,-6.24
0827-BK1-01-35,Salto C,-2.753,-0.666,-9.393,-6.62,144.39,-27.45,-9.044,-2.153,-1.051,8.97,272.83,-12.07,-2.154,-0.084,-2.894,-4.81,173.67,-2.24,-3.329,-0.049,-2.722,-1.94,58.38,-2.46
0827-BK1-01-38,Salto C,-1.001,-1.047,-7.506,-1.75,125.80,-10.47,-9.656,-0.458,6.760,-2.55,287.48,4.23,-2.298,-0.193,-2.163,-1.67,141.39,2.68,-1.861,0.054,-2.623,-10.44,75.15,-0.01
0827-BK1-01-41,Salto C,-2.505,-0.370,-9.550,-0.68,262.80,-20.06,-6.671,-0.174,1.764,7.86,224.68,13.46,-1.690,0.243,-3.117,15.94,165.21,9.14,-3.376,-0.149,-1.544,13.86,69.19,-9.79
0827-BK1-01-44,Salto C,-3.545,-1.393,-8.596,0.34,162.00,-17.90,-9.890,0.032,0.270,7.13,288.04,22.18,-2.069,-0.384,-3.386,4.57,170.96,0.17,-4.268,-0.044,-2.178,-10.97,68.18,1.00
0827-BK1-01-46,Salto C,-7.569,-0.131,-2.592,13.23,278.36,-9.10,-8.949,-0.142,-2.282,-21.30,304.08,-3.34,-5.332,-0.588,-3.706,-2.92,261.90,-3.95,-5.434,-0.239,-4.683,-24.54,273.74,1.63
0827-BK1-01-53,Salto B,-2.180,-1.141,-3.511,-11.64,-52.41,-48.12,-27.505,-0.754,-7.926,-7.77,468.89,48.23,-2.031,0.064,-3.869,17.68,178.29,24.33,-4.198,0.103,0.092,28.76,61.39,2.15
0827-BK1-01-56,Salto B,1.463,-0.906,-2.955,-16.51,14.47,-43.59,-14.437,1.367,9.552,-4.79,347.51,60.67,-2.314,0.111,-3.115,16.73,165.39,19.59,-1.864,-0.089,-3.417,18.12,80.70,-0.16
0827-BK1-01-59,Salto B,1.165,-0.431,-2.435,-38.36,49.95,-47.50,-14.327,-0.021,8.984,3.64,344.40,27.61,-2.409,-0.041,-3.323,7.19,183.28,13.97,-3.676,0.085,-1.816,11.09,80.62,1.27
0827-BK1-01-62,Salto B,-3.962,-1.330,-4.145,-10.22,-18.48,-54.76,-25.075,-1.923,-3.072,13.86,430.56,7.15,-2.339,0.253,-3.657,6.22,172.83,2.27,-3.363,0.046,-2.715,-8.43,85.96,-2.74
0827-BK1-01-65,Salto B,-2.086,-1.226,-3.318,-23.94,-45.04,-27.46,-20.989,-3.067,10.987,-35.86,389.38,50.26,-2.428,0.444,-3.309,3.12,170.15,9.15,-2.157,-0.416,-2.329,-1.45,102.90,-0.35
0827-BK1-01-68,Salto B,0.384,0.703,-4.648,-24.74,30.63,-36.53,-16.703,1.195,5.614,40.74,405.34,30.32,-1.849,0.106,-3.174,16.32,163.40,12.75,-1.503,-0.378,-2.385,15.91,85.57,-4.93
0827-BK1-01-71,Salto B,-2.419,-0.724,-3.708,1.01,-48.54,-34.06,-29.368,-0.953,-12.461,0.62,488.44,21.64,-2.182,-0.196,-3.045,0.98,130.98,-2.57,-2.284,0.355,-2.586,-3.00,96.29,5.00
0827-BK1-01-74,Salto B,0.856,1.482,-4.115,-31.60,26.05,-16.27,-19.014,-0.555,5.032,-31.12,391.98,55.84,-2.552,-0.394,-3.007,1.37,159.46,20.59,-3.717,-0.190,-2.487,17.95,85.02,2.05
0827-BK1-01-76,Salto B,-1.649,1.550,-3.870,-4.56,-27.18,-5.70,-28.713,-2.546,-9.883,-7.32,508.53,8.59,-1.892,-0.051,-2.468,8.72,145.24,6.56,-2.048,-0.073,-2.795,4.72,76.09,4.26
0827-BK1-01-78,Salto B,-1.419,-0.060,-5.102,-18.11,41.19,-25.47,-18.490,0.533,-9.845,26.67,404.16,-0.86,-2.084,-0.073,-3.514,-2.79,169.59,1.58,-3.504,-0.337,-2.432,5.47,71.83,-1.49
0827-BK1-01-81,Salto B,-2.022,-0.253,-2.108,-0.31,-36.07,0.22,-38.074,3.669,-19.944,-16.44,620.97,91.74,-2.307,0.543,-2.809,36.10,148.36,46.53,-2.987,0.415,-2.447,31.05,75.71,-3.17
0827-BK1-01-83,Salto B,-3.654,-0.479,-3.148,10.33,-54.77,-16.57,-26.381,-0.114,-21.855,-11.61,578.17,30.24,-1.955,-0.332,-3.096,-3.17,132.51,4.16,-2.270,-0.293,-2.365,-5.08,75.66,7.04
0827-BK1-01-87,Salto B,-4.878,-1.076,-4.189,-4.83,-77.29,-28.05,-31.244,-0.146,-22.218,-1.13,585.41,14.37,-2.122,-0.584,-2.632,2.55,144.33,11.13,-2.325,0.044,-2.136,-4.56,64.20,1.50
0827-BK1-01-92,Salto B,-4.350,-0.749,-5.525,-22.96,-77.81,-40.16,-32.588,-0.179,-22.854,-52.21,532.69,42.04,-2.151,-0.132,-3.129,-2.70,155.79,20.44,-2.373,-0.408,-2.379,-2.62,68.21,4.13
0827-BK1-01-94,Salto B,-4.350,-0.210,-5.018,3.92,-53.23,-35.33,-30.512,-1.009,-18.991,25.58,523.62,-18.06,-2.373,-0.434,-3.457,-9.30,157.69,-6.81,-2.241,-0.093,-2.590,-12.75,98.17,-2.57
0827-BK1-01-103,Salto A,-0.350,-1.366,-8.466,9.82,124.92,15.66,-3.828,0.513,-5.549,1.28,211.53,-7.23,-3.284,-0.382,-4.776,0.75,191.32,-7.57,-3.468,-0.547,-2.530,10.25,107.32,-5.68
0827-BK1-01-105,Salto A,-2.799,-1.349,-8.222,6.32,205.98,-6.07,-4.091,-0.242,-5.202,7.78,221.53,-15.79,-3.507,-0.168,-4.232,-2.03,202.39,-4.74,-4.143,0.093,-3.313,5.78,109.01,-1.97
0827-BK1-01-107,Salto A,-2.280,-0.246,-8.237,9.79,173.58,-3.05,-5.250,-0.599,-4.578,-19.31,226.40,-7.88,-3.653,-0.243,-4.370,-8.31,201.14,-3.00,-3.126,-0.127,-3.323,3.85,121.13,4.07
0827-BK1-01-109,Salto A,-1.590,-1.161,-7.219,12.39,159.20,1.04,-4.481,0.452,-5.031,1.96,219.66,1.29,-3.484,-0.201,-4.884,6.06,219.13,0.43,-3.665,-0.461,-3.668,2.21,109.52,-6.69
0827-BK1-01-111,Salto A,0.641,-2.129,-6.225,14.47,120.45,12.85,-3.505,-0.665,-5.674,-2.48,192.07,-12.64,-3.164,-0.005,-4.745,9.21,214.55,0.99,-2.914,0.191,-4.322,7.50,126.08,-9.17
0827-BK1-01-113,Salto A,2.582,-1.364,-6.905,8.80,61.54,18.41,-4.552,0.512,-5.505,-7.17,210.69,-13.26,-3.888,-0.056,-4.078,9.06,208.93,-0.41,-3.260,-0.369,-3.691,3.88,144.19,-9.03
0827-BK1-01-115,Salto A,0.442,0.276,-6.984,-0.83,111.41,25.82,-3.947,-0.383,-4.417,-10.98,191.44,-9.47,-3.068,-0.140,-4.187,5.23,201.15,-1.94,-3.336,-0.207,-3.483,6.37,129.40,-0.65
0827-BK1-01-117,Salto A,-0.341,-0.569,-5.284,4.09,126.73,49.08,-3.098,-0.688,-5.198,-10.39,182.82,3.32,-3.056,0.052,-4.879,9.55,200.94,-1.53,-4.522,-0.499,-3.543,-0.31,110.16,-7.95
0827-BK1-01-119,Salto A,-0.579,-0.032,-5.594,-8.03,139.68,26.94,-3.651,-0.588,-5.583,-8.40,192.56,-16.76,-3.610,-0.119,-4.929,12.84,201.10,1.06,-4.477,0.788,-4.672,5.59,128.25,-0.16
0827-BK1-01-121,Salto A,-1.804,-0.941,-7.398,8.48,125.77,4.41,-3.971,-1.505,-5.215,-10.66,201.75,-26.99,-3.869,-0.761,-4.031,-13.43,185.03,-4.60,-4.335,-0.807,-3.552,-19.58,130.26,-6.70
0827-BK1-01-123,Salto A,-0.543,-0.457,-8.353,-26.28,124.65,32.79,-3.432,-0.359,-5.179,21.25,185.41,-17.79,-3.881,0.068,-4.776,11.45,210.28,-3.38,-4.694,0.145,-4.079,5.05,131.10,-10.58
0827-BK1-01-125,Salto A,-1.212,-1.645,-7.363,4.66,116.17,12.90,-3.187,-1.022,-5.963,3.38,197.23,-25.80,-3.727,-0.238,-4.561,-1.33,211.04,-3.18,-3.193,-0.285,-3.443,-1.97,116.39,-9.42
0827-BK1-01-127,Salto A,-0.701,-0.271,-6.639,-16.81,108.06,12.02,-2.415,-0.166,-4.533,11.91,189.98,-18.08,-3.766,-0.659,-4.067,-4.74,199.93,1.75,-3.508,-0.480,-3.365,2.59,135.61,-6.11
0827-BK1-01-129,Salto A,0.603,-0.314,-9.117,2.63,112.47,-0.91,-4.365,-0.471,-6.671,-27.43,237.35,2.82,-4.136,-0.355,-4.990,-5.19,208.75,-2.64,-5.657,-0.225,-3.161,-9.97,116.04,-10.71
0827-BK1-01-131,Salto A,2.412,0.735,-7.247,-11.26,33.43,50.67,-3.359,-1.545,-6.065,6.70,163.55,-10.55,-4.499,-0.252,-4.905,2.19,215.44,-14.98,-4.687,-0.368,-4.208,-0.82,144.83,-23.15
0827-BK2-01-4,Salto C,-2.666,1.272,-8.146,9.74,75.82,-12.73,-1.881,0.950,6.015,3.69,206.31,-5.60,-1.807,1.060,-1.785,-14.50,104.14,-15.18,-1.960,0.864,-2.412,4.23,98.33,7.99
0827-BK2-01-7,Salto C,1.037,0.625,-8.387,21.94,56.57,-7.27,-8.796,1.095,10.321,27.98,333.26,18.26,-0.900,0.767,-1.013,12.71,84.72,-19.39,-1.463,0.209,-2.011,3.13,80.59,-20.14
0827-BK2-01-10,Salto C,-2.461,1.798,-7.570,26.78,59.98,-9.02,-2.085,1.226,9.146,-10.35,188.10,-8.03,-1.296,0.790,-1.538,1.13,85.08,-3.32,-1.581,1.115,-3.098,-4.47,99.01,3.64
0827-BK2-01-13,Salto C,-2.658,2.086,-7.166,11.22,-6.16,3.57,-7.451,-0.996,7.964,0.60,323.43,-13.07,-1.219,0.973,-1.459,-25.13,83.38,-22.05,-1.229,1.972,-2.390,-10.59,99.04,5.80
0827-BK2-01-16,Salto C,-0.265,0.647,-7.923,18.78,25.58,-23.11,-0.992,-0.186,4.282,13.26,159.76,-7.58,-1.237,0.996,-2.249,12.70,111.05,-10.13,-1.475,1.008,-2.375,-7.01,66.51,0.48
0827-BK2-01-19,Salto C,-1.391,1.349,-7.655,21.19,32.14,-13.83,-1.282,-1.874,2.835,-10.61,192.62,-26.54,-1.326,0.673,-2.347,17.93,125.35,-18.56,-1.898,0.885,-1.688,1.85,67.40,-6.73
0827-BK2-01-22,Salto C,-3.291,0.349,-6.632,-3.36,9.62,-25.97,-12.158,1.254,-0.561,14.80,371.62,14.82,-1.451,0.511,-2.061,-9.38,122.54,-25.44,-1.266,1.124,-2.442,-7.04,68.63,0.51
0827-BK2-01-25,Salto C,-0.751,0.420,-7.416,21.01,67.23,-32.59,-6.903,-0.731,13.164,-20.74,289.66,14.48,-1.034,0.919,-2.232,6.95,101.74,-16.93,-2.012,0.384,-1.003,6.37,73.74,-17.29
0827-BK2-01-28,Salto C,-0.358,1.396,-6.835,6.77,30.53,-39.85,-16.104,0.751,-9.393,-21.52,473.01,33.00,-1.571,0.577,-1.825,7.89,88.73,-4.67,-1.769,0.997,-2.317,21.32,80.79,-18.30
0827-BK2-01-31,Salto C,-4.845,0.941,-7.105,21.35,-12.06,-15.15,-6.179,-1.801,20.520,46.67,245.38,5.13,-1.529,1.006,-1.903,9.20,117.98,-11.10,-2.323,0.820,-2.168,14.72,94.49,-15.24
0827-BK2-01-34,Salto C,-6.097,1.428,-6.778,13.91,-13.21,-26.45,-15.674,-0.878,5.972,-16.30,387.84,3.11,-1.236,1.113,-2.383,7.89,111.20,3.40,-1.757,1.162,-2.469,12.06,88.16,-8.64
0827-BK2-01-37,Salto C,-1.313,0.730,-7.709,7.49,31.03,-38.46,-9.983,0.062,11.511,-13.62,316.97,-8.97,-1.322,0.296,-2.197,-5.80,112.85,-26.33,-1.695,0.386,-2.560,-18.17,88.30,-10.16
0827-BK2-01-40,Salto C,-2.706,1.386,-7.034,23.49,50.84,-39.15,-2.339,0.377,7.534,6.93,189.28,-12.83,-1.590,0.677,-2.301,18.19,111.92,-17.29,-2.075,0.409,-2.017,-19.40,102.37,-10.85
0827-BK2-01-43,Salto C,0.615,-0.062,-7.884,-3.99,11.03,-4.96,-14.140,0.545,-0.202,0.80,455.47,-17.58,-1.215,0.136,-1.895,-6.21,99.35,-11.48,-1.199,1.086,-2.700,-6.01,66.55,-2.35
0827-BK2-01-46,Salto C,-4.568,0.932,-7.445,24.71,8.22,-12.81,-9.184,-0.321,16.962,-19.26,297.27,11.35,-1.572,0.082,-2.402,-29.07,128.10,-38.00,-1.954,0.379,-3.056,-32.49,91.82,-11.06
0827-BK2-01-57,Salto B,-8.327,0.022,-3.563,0.02,-177.93,-2.18,-21.349,1.195,-15.804,7.52,577.89,-3.82,-1.154,0.854,-3.025,5.47,97.42,-12.40,-1.790,0.937,-3.074,-0.68,91.52,3.31
0827-BK2-01-59,Salto B,-11.121,-0.495,-4.949,10.83,-159.79,-31.82,-21.448,2.032,-16.034,15.72,607.36,-25.40,-0.306,0.284,-3.385,-4.06,93.27,-14.54,-2.030,0.767,-3.316,-17.80,109.20,-8.46
0827-BK2-01-61,Salto B,-8.159,0.542,-4.032,4.75,-152.60,7.39,-23.161,1.878,-16.612,13.11,544.44,-20.57,-2.205,0.901,-2.970,15.99,135.59,22.46,-3.374,0.157,-2.763,5.71,95.57,-18.38
0827-BK2-01-63,Salto B,-11.438,2.065,-5.393,-18.62,-148.49,-24.79,-20.871,2.263,-15.279,23.27,532.07,6.03,-1.510,1.225,-3.044,-5.62,109.21,-18.14,-2.325,1.293,-2.694,24.59,93.01,1.95
0827-BK2-01-65,Salto B,-8.412,-0.123,-3.680,-0.01,-142.06,-2.78,-21.418,1.546,-16.504,4.97,571.87,-7.47,-0.810,0.550,-3.356,-18.63,116.34,15.09,-2.613,0.366,-2.340,7.64,95.96,-18.64
0827-BK2-01-67,Salto B,-10.441,-0.805,-3.846,-5.13,-140.76,-27.46,-19.107,2.966,-16.416,55.93,503.31,12.49,-0.795,1.030,-3.603,-18.51,110.40,-34.60,-2.541,0.293,-2.541,-15.05,91.84,-18.62
0827-BK2-01-69,Salto B,-12.924,0.658,-5.816,-29.85,-134.77,-28.71,-22.484,3.435,-19.801,29.14,559.81,1.73,-1.745,0.717,-3.520,-7.15,131.02,-11.54,-2.153,0.858,-2.942,14.27,86.26,-15.68
0827-BK2-01-71,Salto B,-12.519,-0.431,-5.376,-10.72,-194.87,-31.89,-21.363,0.120,-17.181,-17.11,578.64,-19.85,-0.990,0.368,-3.397,-20.12,106.19,-50.33,-2.645,0.352,-3.178,-19.16,105.62,-5.33
0827-BK2-01-73,Salto B,-11.980,-1.079,-5.531,-5.00,-171.63,-25.57,-19.698,0.218,-16.363,-1.31,604.61,-44.70,-1.261,0.296,-2.759,-8.84,105.30,-31.27,-2.322,-0.121,-2.881,-16.86,87.39,-5.28
0827-BK2-01-75,Salto B,-9.347,0.459,-5.014,-12.15,-173.23,20.15,-22.154,0.293,-18.312,-69.01,534.63,-47.19,-2.230,0.856,-2.794,-14.73,124.70,-18.70,-2.865,0.521,-2.684,0.53,91.27,-7.86
0827-BK2-01-77,Salto B,-8.839,0.732,-4.311,-4.73,-138.24,3.38,-20.747,4.246,-17.858,13.49,556.99,36.34,-1.449,1.214,-2.481,11.88,43.26,-24.13,-1.522,0.490,-3.967,-11.96,122.50,-9.19
0827-BK2-01-79,Salto B,-11.400,0.837,-6.081,-3.63,-167.09,-27.28,-21.676,3.384,-16.379,28.31,627.40,15.15,-1.583,0.427,-3.202,-11.36,112.69,6.53,-3.316,1.473,-2.731,8.94,109.24,15.10
0827-BK2-01-81,Salto B,-11.836,1.393,-4.753,-19.18,-155.32,-21.49,-17.261,3.017,-17.480,37.56,546.90,10.79,-0.213,1.264,-4.040,-4.68,89.58,-31.66,-2.968,-0.047,-3.436,10.18,115.85,-8.96
0827-BK2-01-83,Salto B,-12.875,1.669,-4.919,10.15,-154.41,-16.93,-14.509,1.566,-16.131,43.45,579.10,-31.32,-0.877,2.692,-2.387,-14.64,56.17,1.94,-2.385,0.874,-3.233,28.85,116.07,-14.71
0827-BK2-01-85,Salto B,-12.230,0.792,-5.658,-19.77,-147.54,-29.70,-21.068,2.989,-16.814,28.33,545.88,8.21,-1.276,1.352,-2.567,-4.44,89.17,-30.97,-3.321,0.582,-2.096,-30.93,104.29,-6.90
0827-BK2-01-96,Salto A,-0.903,0.024,-8.264,8.58,75.77,-11.17,-2.977,0.565,-5.231,5.66,229.30,-32.05,-3.135,0.715,-4.915,14.73,192.37,-10.49,-3.790,-0.268,-3.881,-7.13,135.91,-22.49
0827-BK2-01-98,Salto A,-1.041,1.649,-5.805,17.96,118.26,-14.76,-2.700,-0.267,-4.696,-6.74,215.00,-10.32,-2.787,1.168,-4.481,22.06,179.97,-8.64,-3.252,0.811,-4.029,-3.62,136.69,-6.27
0827-BK2-01-100,Salto A,-2.349,1.485,-6.417,-0.21,105.75,-34.09,-1.962,0.882,-4.051,18.69,205.63,-28.46,-2.508,0.299,-4.232,3.03,168.55,-23.97,-3.313,0.365,-4.220,-18.09,130.86,-20.44
0827-BK2-01-102,Salto A,-2.338,1.173,-8.420,0.05,90.28,-23.27,-3.070,0.293,-3.460,12.94,225.73,-22.36,-2.528,0.680,-4.520,-9.32,160.42,-22.47,-3.060,0.498,-4.238,-2.52,106.05,10.10
0827-BK2-01-104,Salto A,-2.832,-0.468,-6.749,10.30,87.53,-34.26,-3.071,0.850,-3.723,-23.79,215.62,-16.12,-2.526,0.787,-4.545,-1.10,159.80,-13.83,-3.091,1.128,-3.315,12.22,101.40,-20.55
0827-BK2-01-106,Salto A,0.520,0.773,-6.969,30.48,84.29,-24.37,-2.977,1.006,-4.713,-6.60,230.27,13.89,-2.442,0.968,-5.055,2.58,184.53,5.85,-3.769,1.679,-3.942,11.06,126.13,-14.60
0827-BK2-01-108,Salto A,0.782,0.017,-7.356,7.58,102.43,-18.62,-2.450,0.829,-4.828,13.26,255.02,-19.92,-2.688,0.539,-4.717,0.67,167.61,-8.22,-3.573,0.980,-4.479,15.19,144.02,-2.40
0827-BK2-01-110,Salto A,-1.973,0.230,-7.910,12.17,132.01,3.79,-3.263,0.290,-3.459,21.22,208.35,-51.61,-3.089,0.504,-4.328,9.35,187.35,-14.23,-3.560,0.401,-3.918,9.75,122.72,-18.31
0827-BK2-01-112,Salto A,-3.896,0.509,-10.476,10.50,97.60,-53.40,-3.092,0.761,-3.610,16.95,233.58,-15.45,-2.497,0.288,-4.897,7.81,180.09,-10.37,-3.812,0.708,-3.350,4.92,128.25,-20.57
0827-BK2-01-114,Salto A,-1.595,0.945,-7.875,-0.11,103.73,-24.55,-3.146,1.232,-5.607,-8.53,218.54,-3.64,-3.235,1.016,-4.945,11.06,186.96,-1.77,-4.317,0.607,-4.562,18.54,145.12,-18.39
0827-BK2-01-116,Salto A,0.161,-0.050,-7.395,-1.63,88.10,4.28,-3.383,0.509,-5.307,13.33,236.95,-10.92,-2.675,0.764,-4.667,-8.78,182.88,-5.36,-3.512,1.458,-4.229,5.39,127.90,-3.79
0827-BK2-01-118,Salto A,0.022,-0.341,-7.634,1.96,95.21,-18.90,-2.968,-0.144,-3.769,-0.10,220.71,-10.58,-3.134,0.757,-4.558,-10.05,175.17,-10.75,-3.841,0.991,-4.528,0.85,125.40,-8.10
0827-BK2-01-120,Salto A,1.136,0.764,-8.051,-9.03,61.62,-5.20,-3.306,0.681,-4.534,10.84,200.47,-30.54,-3.340,0.888,-4.940,-21.74,196.22,-13.35,-3.384,0.774,-4.275,4.92,126.58,-2.37
0827-BK2-01-122,Salto A,0.436,-0.393,-5.496,-17.94,76.12,-19.53,-2.576,1.184,-5.111,10.86,247.38,-11.19,-2.798,1.242,-4.788,17.79,193.89,-18.20,-3.990,0.241,-3.936,-13.50,127.21,-8.34
0827-BK2-01-124,Salto A,2.103,-0.108,-5.162,13.00,27.69,-47.95,-3.108,1.125,-3.723,2.82,225.31,-11.63,-2.717,0.828,-4.901,15.70,191.37,-14.28,-3.258,-0.228,-3.653,5.44,106.59,-18.90
0827-BK2-02-7,Salto C,-5.325,-1.764,-9.681,-6.09,9.41,-46.55,-14.584,1.525,-3.074,13.89,466.58,-29.27,-1.030,0.260,-2.034,1.08,97.57,-49.54,-0.772,0.454,-3.324,-1.24,86.09,-53.56
0827-BK2-02-10,Salto C,-4.663,-0.513,-8.147,-18.60,-25.00,-26.29,-9.895,2.261,0.465,43.78,372.66,-15.48,-1.244,0.696,-1.842,19.86,106.61,-19.14,-1.298,0.583,-2.524,16.43,97.30,-31.01
0827-BK2-02-13,Salto C,-5.634,-0.612,-8.943,-25.61,-68.02,-1.62,-20.690,-1.593,-10.222,1.37,531.45,-30.16,-1.264,0.208,-1.998,11.88,96.07,-35.00,-0.635,0.063,-3.105,2.22,51.56,-35.94
0827-BK2-02-16,Salto C,-6.824,-0.988,-8.803,-25.93,-24.81,-9.17,-18.215,0.927,-6.729,28.25,478.44,-16.96,-1.035,0.344,-2.089,11.11,108.61,-28.38,-2.020,0.650,-3.032,-7.52,67.80,-35.55
0827-BK2-02-19,Salto C,-5.852,0.229,-8.633,-30.75,6.39,-16.39,-13.934,1.425,-5.948,39.35,458.60,-13.97,-0.414,0.217,-2.534,16.10,112.32,-38.78,-2.949,0.007,-2.779,0.17,81.60,-12.53
0827-BK2-02-22,Salto C,-3.132,0.338,-7.845,-27.56,-6.44,-13.16,-21.714,0.201,-9.979,1.66,513.59,-9.09,-1.272,0.879,-2.242,19.36,108.61,-30.48,-2.060,0.045,-2.506,3.56,78.17,-36.37
0827-BK2-02-25,Salto C,-4.119,0.236,-8.340,-21.30,0.52,-87.50,-15.354,1.140,-2.149,38.96,461.38,0.45,-0.773,0.349,-2.885,15.58,107.88,-37.19,-1.162,0.481,-3.300,3.97,89.22,-38.93
0827-BK2-02-28,Salto C,-3.503,0.435,-9.373,-24.59,2.25,-29.37,-14.832,0.456,-1.678,21.17,456.71,-42.93,-0.604,0.644,-2.592,-4.96,87.95,-28.02,-1.622,0.516,-3.084,10.94,78.75,-33.02
0827-BK2-02-32,Salto C,-4.940,0.858,-9.266,-13.71,-21.04,-4.30,-17.278,1.807,-6.427,44.51,487.96,4.93,-1.048,-0.079,-2.121,15.82,102.17,-39.16,-1.358,0.453,-3.474,3.74,66.41,-35.52
0827-BK2-02-35,Salto C,-4.742,-0.724,-8.539,3.34,-0.43,-77.33,-15.701,-0.988,-3.821,18.51,436.67,-36.18,-0.955,0.218,-1.753,13.40,107.39,-10.67,-1.341,0.507,-3.213,22.75,87.44,-28.88
0827-BK2-02-38,Salto C,-5.497,-0.470,-8.422,-11.71,-20.31,-45.31,-18.684,1.498,-9.945,25.15,479.72,-11.76,-0.411,-0.016,-1.902,12.84,109.85,-22.19,-0.689,-0.225,-3.523,-1.77,53.86,-62.99
0827-BK2-02-41,Salto C,-5.113,0.224,-9.111,-36.21,-17.01,-46.97,-20.188,0.162,-9.194,-16.21,501.52,-55.96,-1.126,-0.366,-1.647,6.83,83.40,-42.96,-1.264,-0.203,-2.354,6.09,97.93,-26.11
0827-BK2-02-44,Salto C,-5.095,-0.550,-9.132,-20.82,-4.14,-59.09,-15.138,0.160,-6.530,36.31,458.72,-55.91,-0.882,0.050,-2.945,4.33,98.69,-13.01,-3.131,0.370,-3.656,-4.17,95.67,-36.88
0827-BK2-02-47,Salto C,-4.349,0.489,-8.054,-28.11,-36.92,-63.73,-22.269,0.162,-7.132,40.42,505.64,-13.77,-1.277,0.039,-2.289,-4.19,108.62,-30.01,-1.017,0.940,-2.450,12.26,78.82,-13.64
0827-BK2-02-52,Salto B,-11.647,0.548,-9.426,-19.65,-126.32,-14.68,-25.350,-0.118,-16.916,44.35,560.29,-13.65,-1.503,0.887,-2.827,32.46,133.44,-28.04,-2.588,0.656,-3.793,5.60,97.55,-31.52
0827-BK2-02-55,Salto B,-9.626,0.637,-8.268,-37.75,-109.89,21.89,-24.670,-0.661,-14.053,31.88,557.65,-17.26,-1.134,0.498,-2.402,13.41,150.69,-35.04,-1.410,-0.097,-5.020,7.53,99.94,-27.26
0827-BK2-02-57,Salto B,-9.078,2.254,-6.357,-26.13,-73.03,-4.62,-26.224,1.267,-14.927,56.28,535.53,-1.18,-0.525,0.305,-3.439,30.12,129.70,-16.99,-3.084,0.615,-4.264,-4.35,105.56,-36.89
0827-BK2-02-59,Salto B,-9.753,-0.408,-4.938,-21.46,-108.33,-15.06,-28.880,1.372,-15.540,52.74,585.06,-7.85,-1.569,0.628,-2.473,17.15,108.31,-22.27,-1.570,-0.633,-3.254,15.15,105.18,-52.58
0827-BK2-02-61,Salto B,-8.917,-1.287,-6.258,-28.55,-98.01,7.84,-24.179,-0.026,-12.683,37.24,546.62,-5.74,-1.160,0.853,-2.431,0.99,106.65,-51.32,-2.146,0.092,-4.047,-11.86,119.54,-29.76
0827-BK2-02-63,Salto B,-9.769,1.788,-5.867,-14.25,-71.46,-16.22,-16.627,-0.382,-11.629,66.74,450.81,-33.77,-1.347,0.825,-2.013,26.37,142.13,-56.97,-2.740,1.074,-4.271,-5.21,92.66,-33.85
0827-BK2-02-65,Salto B,-8.615,-0.794,-3.653,-16.85,-111.43,-29.90,-23.628,0.955,-12.359,0.23,545.87,10.07,-1.688,0.956,-0.979,14.83,86.57,-56.22,-1.659,0.290,-3.301,-19.65,123.04,-30.83
0827-BK2-02-67,Salto B,-10.013,2.212,-5.301,-22.80,-72.98,-33.24,-20.350,2.738,-12.740,95.64,488.04,21.14,-0.723,1.026,-2.554,19.38,117.22,-33.93,-2.712,0.900,-3.964,14.68,112.04,-37.17
0827-BK2-02-69,Salto B,-7.777,-0.413,-6.246,-15.26,-119.36,-11.40,-17.424,-0.460,-11.035,-36.52,570.98,-15.08,-3.920,1.157,1.129,40.09,184.28,-43.59,-1.130,-0.005,-3.464,20.62,77.00,-46.43
0827-BK2-02-71,Salto B,-9.484,-0.905,-7.872,-1.05,-101.49,22.30,-31.775,2.495,-16.995,62.79,613.12,21.52,-0.419,0.217,-3.894,21.83,88.47,-29.54,-3.056,0.872,-3.535,9.42,109.37,-51.83
0827-BK2-02-73,Salto B,-7.976,0.733,-4.954,-31.25,-61.37,-18.21,-25.749,0.172,-14.252,47.45,536.50,19.83,-1.239,0.918,-1.924,3.88,122.77,-58.21,-2.682,0.659,-4.794,-14.06,124.49,-38.97
0827-BK2-02-75,Salto B,-9.945,-0.466,-8.421,-7.29,-126.49,-21.87,-21.991,1.956,-14.256,76.59,520.06,48.00,-1.674,0.827,-1.921,31.16,145.11,-39.42,-3.699,0.947,-4.155,2.58,103.12,-45.31
0827-BK2-02-77,Salto B,-8.356,1.162,-7.942,-9.38,-102.81,-44.26,-25.842,3.236,-13.927,30.01,569.33,15.56,-1.869,0.150,-1.152,29.03,135.89,-46.46,-1.088,0.269,-5.561,2.91,83.63,-26.30
0827-BK2-02-79,Salto B,-7.506,0.066,-7.735,-21.56,-76.00,-6.57,-22.777,1.572,-15.778,24.94,539.75,-15.44,-1.995,0.526,-1.446,18.02,149.10,-49.85,-3.053,-0.050,-3.550,-4.76,102.99,-40.91
0827-BK2-02-81,Salto B,-8.628,1.363,-6.262,-32.28,-89.89,15.42,-21.422,0.686,-14.092,2.16,513.98,13.14,-3.493,1.001,0.967,16.45,193.45,-55.82,-1.321,0.625,-3.881,-1.28,82.23,-15.56
0827-BK2-02-123,Salto A,1.235,1.302,-6.200,-0.86,66.73,-25.68,-2.522,0.326,-4.972,-1.18,242.85,-28.19,-2.315,-0.191,-4.734,17.71,187.27,-27.83,-5.468,-0.130,-5.076,-23.68,157.82,-28.42
0827-BK2-02-125,Salto A,0.632,-0.038,-5.303,-9.62,75.44,-31.52,-1.789,0.174,-5.451,-7.40,244.46,-34.70,-2.185,-0.107,-4.207,4.62,178.17,-38.31,-3.038,-0.217,-5.565,-11.56,144.26,-35.68
0827-BK2-02-127,Salto A,0.431,1.109,-4.625,-2.55,123.02,-36.73,-1.875,0.964,-6.140,21.34,208.14,-5.66,-1.853,0.057,-5.243,26.94,191.36,-20.68,-4.574,0.280,-5.103,18.21,142.34,-46.15
0827-BK2-02-129,Salto A,0.766,-0.720,-4.999,-14.19,113.25,-47.99,-1.896,0.231,-7.250,-9.78,233.14,-1.48,-1.908,0.245,-5.486,7.41,199.53,-43.64,-3.982,-0.129,-5.323,-2.10,140.65,-40.21
0827-BK2-02-131,Salto A,2.555,-0.733,-4.383,-14.95,80.53,-42.06,-1.891,0.190,-5.683,9.14,204.11,-10.89,-2.529,-0.244,-5.010,-4.07,184.00,-54.53,-3.144,0.079,-5.329,4.98,160.41,-37.64
0827-BK2-02-133,Salto A,1.974,-0.505,-5.954,-3.10,109.38,-42.58,-2.152,0.422,-5.444,27.08,219.08,-11.21,-2.543,0.391,-4.666,-2.14,183.02,-24.75,-3.088,0.146,-5.307,11.49,144.85,-41.94
0827-BK2-02-135,Salto A,1.863,-0.583,-4.195,-2.90,88.00,-39.33,-0.940,0.017,-7.576,-10.21,244.54,-5.45,-1.398,0.593,-5.272,13.80,183.92,-34.77,-5.070,-0.108,-4.986,0.59,143.76,-16.70
0827-BK2-02-137,Salto A,1.593,-0.076,-2.637,3.96,97.96,-36.19,-3.349,1.551,-5.792,23.38,234.24,-20.71,-2.654,0.418,-5.134,23.18,195.96,-23.94,-3.919,0.456,-5.464,3.07,148.08,-41.02
0827-BK2-02-139,Salto A,0.943,0.433,-2.578,-5.69,79.80,-56.59,-2.303,0.313,-5.890,16.17,223.17,-20.20,-2.875,-0.288,-5.134,2.78,203.56,-28.92,-3.544,0.615,-5.048,-0.19,117.36,-41.88
0827-BK2-02-141,Salto A,3.105,-0.594,-2.620,-2.74,84.35,-73.14,-2.718,0.635,-5.097,22.62,213.72,-16.83,-2.381,0.045,-4.566,5.02,178.91,-33.73,-3.037,-0.055,-5.468,9.63,156.76,-39.96
0827-BK2-02-143,Salto A,3.188,-0.123,-4.837,-15.69,77.90,-65.37,-2.224,0.381,-5.090,9.33,207.95,-0.40,-2.630,0.650,-4.261,27.52,154.11,-18.34,-4.294,0.457,-4.765,13.14,156.42,-63.11
0827-BK2-02-145,Salto A,3.046,-1.786,-1.576,-12.64,116.39,-63.49,-2.722,1.041,-5.674,5.53,207.26,-3.64,-3.322,0.441,-3.784,-4.50,179.27,-35.28,-3.648,-1.138,-6.548,-1.27,147.69,-65.99
0827-BK2-02-147,Salto A,3.201,2.879,-2.468,14.99,134.33,-41.88,-2.088,0.294,-5.597,-4.54,236.80,-3.87,-3.206,0.009,-5.145,13.54,200.67,-24.53,-4.767,0.736,-6.303,26.62,165.43,-39.50
0827-BK2-02-149,Salto A,2.247,-0.178,-3.921,-19.88,118.48,-38.07,-2.447,0.099,-4.982,16.51,211.30,-26.04,-2.908,-1.226,-4.582,-2.74,193.77,-52.74,-3.649,0.166,-5.268,-15.70,150.82,-28.11
20190930-1616-FRANKFURT_1-01-10,Salto C,-3.718,-0.001,-7.826,14.48,-11.02,15.59,-20.538,-0.948,-8.958,-36.17,530.86,28.42,-1.622,-0.336,-3.431,-19.38,93.43,22.39,-1.758,-0.530,-4.207,-10.22,124.84,4.14
20190930-1616-FRANKFURT_1-01-11,Salto C,-5.038,0.587,-8.852,-11.79,-19.52,-1.00,-19.329,-1.027,-10.541,-7.12,516.34,32.59,-1.134,-0.747,-3.553,-7.94,119.61,13.96,-2.539,-0.094,-3.826,2.47,100.62,7.33
20190930-1616-FRANKFURT_1-01-12,Salto B,-9.298,-0.100,-4.703,6.56,-97.55,31.41,-19.555,0.250,-12.847,14.42,529.72,13.31,0.025,0.100,-4.201,-6.16,113.78,9.36,-3.784,-0.135,-3.987,-9.56,113.49,25.74
20190930-1616-FRANKFURT_1-01-13,Salto B,-10.271,-0.835,-6.472,9.62,-133.59,14.32,-20.826,0.716,-11.378,29.60,564.07,-7.87,0.147,0.664,-2.625,-18.33,96.68,-4.99,-2.501,-0.542,-4.612,6.91,119.79,13.68
20190930-1616-FRANKFURT_1-01-14,Salto A,2.498,-1.551,-5.452,-9.55,127.08,-20.48,-1.930,-0.472,-6.305,27.68,212.38,-8.86,-2.267,-0.816,-5.819,-4.71,176.95,4.33,-6.026,-0.191,-5.328,-3.14,149.28,10.42
20190930-1616-FRANKFURT_1-01-15,Salto A,2.470,0.150,-5.118,4.80,110.15,-12.45,-2.497,-0.886,-6.199,37.26,211.76,-19.09,-2.096,-1.285,-6.428,-2.32,198.62,-2.76,-4.147,-0.375,-5.409,-2.75,154.99,13.60
20190930-1616-FRANKFURT_1-01-26,Salto C,-5.214,-0.835,-6.975,-3.05,-66.10,2.71,-16.559,-0.391,-8.240,7.24,536.29,32.08,-0.453,-0.222,-3.908,-6.62,86.01,13.67,-1.821,-0.270,-3.934,4.93,110.90,24.17
20190930-1616-FRANKFURT_1-01-27,Salto C,-6.590,0.423,-6.052,-9.35,-70.39,8.32,-17.221,0.291,-8.277,14.31,525.04,32.35,-3.914,-1.175,-1.634,-10.37,145.08,10.86,-1.916,0.019,-3.950,4.92,136.70,32.50
20190930-1616-FRANKFURT_1-01-28,Salto B,-11.051,-0.622,-5.727,16.04,-117.80,16.75,-19.166,0.624,-12.676,26.04,595.43,0.63,-0.461,-0.642,-2.685,-22.93,146.06,-0.33,-4.550,0.388,-4.164,3.45,111.42,33.10
20190930-1616-FRANKFURT_1-01-29,Salto B,-10.331,-0.641,-4.479,14.43,-75.97,9.87,-15.869,0.373,-13.386,31.57,564.27,-3.64,-1.159,0.481,-1.720,-8.88,131.18,-4.59,-4.352,-0.104,-3.755,1.61,107.17,16.40
20190930-1616-FRANKFURT_1-01-30,Salto A,3.541,-1.624,-5.567,-20.20,109.05,-28.47,-2.640,-0.741,-6.817,12.67,218.17,0.87,-2.454,-1.381,-6.742,13.74,192.22,5.20,-6.550,-0.755,-5.666,-17.47,167.20,8.68
20190930-1616-FRANKFURT_1-01-31,Salto A,2.882,-2.223,-5.657,-14.79,90.45,-17.92,-2.574,0.170,-6.032,32.19,194.63,-0.82,-2.609,-0.715,-6.175,9.39,189.44,3.98,-4.681,-0.065,-5.734,8.95,195.41,26.27
20190930-1616-FRANKFURT_1-01-33,Salto A,-6.736,-0.446,-4.877,-16.15,223.99,19.49,-8.102,-0.951,-4.998,2.98,308.16,18.74,-7.421,-0.197,-5.241,-3.50,301.01,4.20,-6.343,-0.716,-8.464,-16.44,315.21,-0.94
20190930-1616-FRANKFURT_1-01-41,Salto C,-4.038,-0.289,-7.794,9.32,-51.82,-14.19,-18.250,-1.285,-13.334,-4.77,581.77,6.35,1.098,-1.229,-4.214,-8.46,63.00,25.36,-2.225,-0.719,-3.827,-2.49,93.75,24.95
20190930-1616-FRANKFURT_1-01-42,Barani C,-15.551,2.789,-3.074,-90.11,-409.44,31.31,-1.949,2.697,-7.502,-99.10,-10.05,179.02,-0.043,-1.803,-5.693,-144.30,-14.34,148.27,-2.595,-2.193,-3.883,-32.09,82.41,122.63
20190930-1616-FRANKFURT_1-01-43,Barani C,-12.998,0.951,-3.381,-35.57,-430.61,28.34,-4.004,6.065,-8.254,-11.08,-9.84,142.50,-1.840,-1.244,-5.485,-93.87,-30.07,208.45,-1.602,-1.480,-4.197,-75.46,119.75,64.78
20190930-1616-FRANKFURT_1-01-44,Salto C,-4.851,0.300,-6.566,27.25,-18.89,-47.38,-16.638,-1.990,-12.079,-9.58,548.86,-5.13,-0.503,-0.809,-2.984,-14.58,93.89,34.21,-2.275,-0.227,-3.011,-4.42,117.39,-14.53
20190930-1616-FRANKFURT_1-01-49,Salto C,-3.924,-0.050,-9.251,-9.69,-27.72,-8.47,-21.109,-0.038,-19.052,18.02,553.01,42.61,-1.471,-1.058,-4.172,6.21,142.25,18.56,-4.208,-0.287,-2.740,0.33,92.08,19.59
20190930-1616-FRANKFURT_1-01-50,Barani C,-8.943,1.450,-3.204,-59.17,-326.06,24.76,-6.895,2.138,-7.502,-57.50,-155.48,265.61,-3.059,-2.068,-5.775,-55.55,87.56,137.78,-3.806,-2.003,-3.232,-44.47,183.54,122.30
20190930-1616-FRANKFURT_1-01-56,Salto C,-5.029,0.388,-7.730,-12.59,-11.60,-3.22,-20.444,-0.530,-14.251,17.62,565.04,12.16,-0.779,-1.418,-4.341,-20.94,123.85,21.77,-4.713,-0.555,-3.509,-26.48,100.93,10.44
20190930-1616-FRANKFURT_1-01-57,Barani C,-11.049,1.049,-2.619,-42.74,-398.89,19.19,-3.317,0.224,-5.824,-83.56,-114.95,217.62,-2.052,-0.710,-5.111,-34.62,25.94,227.06,-2.230,-0.418,-3.695,-49.24,135.94,96.34
20190930-1616-FRANKFURT_1-01-58,Barani C,-16.496,1.733,-3.426,-29.37,-430.56,38.24,-0.920,0.290,-5.034,-87.00,-57.48,183.47,-0.747,-1.676,-5.080,-101.15,-15.81,199.37,-2.382,-1.464,-4.039,-33.47,104.29,139.30
20190930-1616-FRANKFURT_1-01-59,Salto C,-4.835,-0.789,-8.528,7.71,-82.03,-56.68,-17.599,-1.542,-12.165,-25.42,558.69,19.54,-0.451,-0.527,-3.125,-3.70,100.50,13.11,-2.264,-0.944,-3.072,2.71,110.95,-4.05
20190930-1616-FRANKFURT_1-01-78,Fliffis C,-29.281,-2.807,-9.988,20.76,-650.27,-46.05,-25.885,2.484,-14.120,-56.26,-579.51,51.09,-7.701,-0.194,-16.120,-187.87,-106.78,324.13,-8.244,-4.065,-11.532,-67.16,224.42,125.66
20190930-1616-FRANKFURT_1-01-96,Fliffis C,-30.641,1.469,-8.020,-57.90,-664.36,-29.44,-27.840,7.769,-13.877,-100.85,-581.62,57.80,-9.246,1.141,-14.757,-159.63,-128.95,263.90,-8.750,-5.159,-13.143,-59.58,220.00,160.96
20190930-1616-FRANKFURT_1-01-97,1/2 ein 1/2 aus C,-8.783,-8.906,-5.177,443.45,33.07,237.08,-42.572,-9.162,-21.209,321.59,-628.95,-32.51,-6.616,9.529,-20.675,-105.05,-104.09,292.39,-6.554,-5.677,-11.341,-64.87,165.53,225.51
20190930-1616-FRANKFURT_1-01-98,Fliffis C,-36.692,-0.092,-9.651,2.15,-642.59,-15.13,-52.468,6.722,-28.702,-80.05,-732.99,74.44,-11.920,5.184,-11.915,-30.98,-95.39,222.06,-4.951,-5.340,-11.802,-80.87,213.26,185.99
20190930-1616-FRANKFURT_1-01-113,Fliffis C,-29.043,-0.621,-8.209,24.09,-638.30,-40.11,-37.357,4.028,-10.226,-53.79,-639.92,96.86,-14.565,1.049,-10.386,-70.33,20.04,309.73,-5.430,-5.420,-10.251,-112.25,272.53,144.75
20190930-1616-FRANKFURT_1-01-114,1/2 ein 1/2 aus C,-8.249,-8.121,-4.933,462.97,11.88,194.98,-39.312,-8.937,-18.558,320.16,-592.73,-75.73,-6.359,7.775,-20.176,-148.78,-179.16,295.01,-3.682,-3.882,-9.149,-82.41,213.43,144.39
20190930-1616-FRANKFURT_1-01-115,Fliffis C,-38.369,-0.843,-10.378,24.29,-660.85,-36.22,-52.726,5.538,-30.084,-54.20,-754.02,47.57,1.300,-5.096,-6.519,-164.83,95.95,165.41,-6.833,-5.121,-10.002,-55.73,202.69,171.68
20190930-1616-FRANKFURT_1-01-133,Fliffis C,-31.195,1.271,-6.102,-23.00,-631.53,13.84,-22.946,1.704,-15.048,-113.21,-534.37,28.00,-3.540,-0.261,-15.593,-206.39,-38.07,187.74,-6.981,-5.336,-12.652,-62.80,215.34,123.80
20190930-1616-FRANKFURT_1-01-134,1/2 ein 1/2 aus C,-9.757,-8.705,-4.048,472.08,30.60,250.07,-40.805,-12.287,-19.027,342.97,-597.16,7.27,-6.569,10.194,-20.711,-89.52,-141.78,332.83,-7.070,-5.111,-11.022,-46.97,184.02,246.65
20190930-1616-FRANKFURT_1-01-135,Fliffis C,-37.357,-2.426,-9.016,63.93,-630.73,-36.25,-51.662,0.469,-26.342,15.25,-719.73,32.75,-11.661,15.817,-19.991,-13.11,-53.34,347.08,-5.332,-6.513,-10.084,-79.83,202.06,122.19
20190930-1616-FRANKFURT_1-01-148,Fliffis C,-27.619,-2.664,-7.909,26.66,-632.57,-70.96,-36.578,0.522,-6.637,4.41,-604.90,82.46,-9.708,7.212,-12.810,5.93,-82.56,371.90,-7.301,-4.415,-10.525,-76.03,258.61,116.87
20190930-1616-FRANKFURT_1-01-149,1/2 ein 1/2 aus C,-7.049,-7.914,-5.173,446.54,54.70,170.90,-38.752,-8.111,-18.631,297.85,-582.21,-114.05,-14.725,8.323,-22.576,-156.97,-308.22,332.42,-8.222,-4.633,-8.985,-23.64,167.78,140.59
20190930-1616-FRANKFURT_1-01-150,Fliffis C,-40.971,-2.994,-8.833,24.41,-654.84,-37.11,-54.986,8.404,-30.683,-71.90,-766.85,53.69,4.590,-5.879,-5.176,-154.62,106.46,160.11,-5.811,-5.352,-10.101,-56.55,193.28,165.85
20190930-1616-FRANKFURT_1-01-165,Fliffis C,-29.960,-0.522,-8.310,13.16,-640.13,-0.25,-39.254,5.396,-11.718,-92.17,-654.60,90.23,-13.274,3.601,-9.899,-8.06,11.65,329.98,-5.716,-5.440,-11.993,-54.04,214.37,137.08
20190930-1616-FRANKFURT_1-01-166,1/2 ein 1/2 aus C,-9.371,-9.731,-2.320,463.90,34.21,230.12,-41.347,-12.064,-18.342,307.61,-627.37,-8.56,-7.148,8.799,-21.981,-182.06,-156.03,386.14,-8.711,-4.531,-10.840,-50.28,194.52,149.05
20190930-1616-FRANKFURT_1-01-167,Fliffis C,-39.308,-2.364,-9.460,34.77,-658.36,-14.99,-56.107,2.890,-29.729,-34.32,-762.28,41.14,-16.951,-6.867,-1.102,-31.02,-87.59,213.32,-7.635,-3.761,-9.962,-42.84,177.64,208.08
20190930-1616-FRANKFURT_1-01-180,Salto C,-1.205,0.048,-7.581,-10.65,-16.19,-26.93,-19.579,0.776,-18.000,-0.77,531.37,17.77,-1.140,-0.664,-3.431,-6.13,129.47,15.77,-3.538,-0.734,-2.765,-6.47,77.22,19.71
20190930-1616-FRANKFURT_1-01-181,Fliffis C,-40.061,-2.782,-9.625,8.07,-670.32,-38.52,-41.946,6.265,-29.887,-95.56,-668.92,72.05,-8.317,0.164,-11.608,-165.91,-130.14,283.03,-7.536,-4.200,-8.932,-39.87,228.70,89.45
20190930-1616-FRANKFURT_1-01-182,Doppelsalto B,-13.934,-1.187,-9.659,26.84,21.88,8.17,-34.044,0.017,2.956,18.59,626.98,-26.41,-47.645,2.357,-27.085,71.19,714.78,-30.53,-7.029,-0.679,-10.113,7.38,203.69,6.52
20190930-1616-FRANKFURT_1-01-183,Barani A,-5.036,0.416,-3.326,-58.90,-142.78,29.63,-1.460,0.435,-8.213,-156.24,-116.72,155.92,-1.668,-1.920,-8.474,-169.27,95.96,174.27,-4.244,-2.005,-6.047,-18.87,140.74,83.08
20190930-1616-FRANKFURT_1-01-199,Salto C,2.011,-0.552,-7.864,14.07,41.01,-28.91,-16.161,0.847,-13.187,22.51,492.38,15.55,-1.212,-0.881,-3.397,-0.29,139.93,11.83,-3.215,-0.499,-3.374,10.54,80.11,16.87
20190930-1616-FRANKFURT_1-01-200,Fliffis C,-38.933,-2.636,-8.138,21.45,-651.74,-18.52,-49.979,8.996,-26.404,-98.88,-717.68,52.13,3.845,-0.411,-11.341,-175.22,52.06,222.21,-6.311,-3.326,-9.535,-39.88,198.74,92.80
20190930-1616-FRANKFURT_1-01-201,Doppelsalto B,-13.543,-2.195,-9.499,4.54,-149.09,-47.66,-38.156,-1.015,-0.817,28.49,674.43,1.97,-39.100,1.205,-32.911,57.76,712.28,-13.67,-4.122,-1.515,-11.569,-6.77,150.44,11.47
20190930-1616-FRANKFURT_1-01-202,Barani A,-4.499,1.697,-3.650,-58.31,-119.25,32.56,-0.377,1.145,-8.513,-155.02,-151.34,103.05,-1.473,-1.285,-9.076,-186.33,55.83,195.63,-4.926,-2.313,-5.334,-45.98,148.37,55.13
20190930-1616-FRANKFURT_1-01-216,Salto C,-1.642,-0.423,-4.370,-7.80,49.08,-7.08,-6.373,-0.829,-4.413,-0.56,251.21,-0.52,-5.462,-1.080,-3.733,-10.61,228.99,-12.04,-4.253,-0.506,-2.883,-14.14,185.26,0.15
20190930-1616-FRANKFURT_1-01-223,Salto C,1.540,-0.361,-7.452,0.94,11.25,-47.06,-15.496,-1.678,-18.217,3.89,508.46,-13.98,-0.793,-0.713,-3.247,0.77,126.56,28.60,-3.514,-0.389,-2.660,-6.21,83.63,24.08
20190930-1616-FRANKFURT_1-01-224,Fliffis C,-40.107,-1.230,-6.701,-8.83,-656.10,-50.53,-49.061,8.147,-27.112,-85.07,-716.15,68.94,-0.747,1.740,-11.508,-179.85,-89.86,267.00,-6.038,-3.242,-9.515,-49.81,170.63,155.01
20190930-1616-FRANKFURT_1-01-225,Doppelsalto B,-13.344,-2.701,-10.292,20.21,-35.36,-19.71,-33.400,-0.456,1.185,5.40,596.57,-16.06,-39.457,1.793,-31.551,32.84,736.14,-48.57,-11.484,-0.040,-8.584,26.24,175.60,-4.30
20190930-1616-FRANKFURT_1-01-226,Barani A,-5.192,1.242,-3.038,-43.41,-135.24,36.88,-0.170,1.150,-7.810,-155.24,-109.76,149.64,-1.220,-2.307,-7.795,-130.14,94.50,182.68,-3.421,-1.704,-5.605,-29.84,143.01,56.26
20190930-1616-FRANKFURT_1-01-239,Salto C,-1.385,-0.275,-7.455,2.24,14.54,1.55,-18.865,-0.133,-16.197,13.62,524.28,6.21,-1.278,-0.529,-2.925,-18.66,121.46,11.06,-2.711,-0.724,-4.274,-0.32,95.07,4.75
20190930-1616-FRANKFURT_1-01-240,Fliffis C,-38.395,-1.194,-7.028,10.11,-652.02,-48.29,-52.314,6.341,-25.898,-47.36,-752.91,30.91,-6.644,-5.301,-6.858,-113.20,74.50,162.14,-5.696,-3.119,-8.831,-54.95,157.12,177.58
20190930-1616-FRANKFURT_1-01-241,Doppelsalto B,-15.939,-1.944,-8.332,42.49,-62.78,18.94,-34.959,-1.424,0.198,7.15,662.29,-5.87,-39.343,-1.346,-36.180,42.32,757.54,-13.24,-1.276,-1.448,-12.271,8.39,121.66,8.13
20190930-1616-FRANKFURT_1-01-242,Barani A,-3.469,0.428,-2.182,-45.79,-141.31,27.64,-0.993,1.243,-7.321,-160.46,-111.91,125.57,-0.833,-3.530,-5.951,-94.06,56.07,230.24,-3.411,-0.182,-5.581,2.59,201.22,50.43
20190930-1616-FRANKFURT_1-01-255,Salto C,-1.228,-0.838,-6.646,-7.43,14.34,-21.42,-17.978,-0.966,-12.250,9.38,568.07,7.90,-0.511,-0.810,-3.880,-3.39,108.65,14.94,-3.651,-0.416,-1.539,2.58,85.05,19.38
20190930-1616-FRANKFURT_1-01-256,Fliffis C,-40.862,-1.904,-9.048,16.68,-665.29,-37.02,-45.168,6.812,-28.529,-92.34,-674.59,30.95,-5.138,-0.077,-13.411,-183.94,-101.40,275.58,-8.207,-3.712,-9.614,-45.48,219.86,122.18
20190930-1616-FRANKFURT_1-01-257,Doppelsalto B,-14.972,-1.883,-9.231,17.44,-157.47,22.75,-36.406,-2.077,2.475,-34.05,614.63,-12.12,-38.139,-0.480,-40.952,39.35,818.13,-43.26,-6.181,-0.847,-9.388,-11.18,170.88,-5.97
20190930-1616-FRANKFURT_1-01-258,Barani A,-8.835,0.565,-5.533,-79.98,-137.95,88.73,-0.932,0.632,-8.587,-159.16,-105.19,165.46,-1.682,-2.258,-7.463,-136.49,95.35,169.93,-3.921,-1.625,-4.954,-52.18,163.99,64.53
20190930-1616-FRANKFURT_1-01-272,Barani A,-3.682,0.721,-2.975,-60.86,-106.07,60.76,-0.768,0.272,-7.846,-164.19,-155.93,111.48,-1.477,-1.733,-7.761,-163.12,68.58,186.40,-4.847,-2.055,-6.337,-20.79,137.22,95.98
20190930-1616-FRANKFURT_1-01-273,Doppelsalto C,-15.468,-0.273,-15.125,14.43,213.83,-5.20,-42.791,3.887,-16.475,73.81,678.37,66.45,-29.505,5.258,-27.493,53.34,566.22,-0.81,-3.143,-0.112,-8.681,6.90,142.98,33.21
20190930-1616-FRANKFURT_1-01-274,Barani C,-13.593,1.883,-1.987,-93.36,-377.84,63.02,-5.637,7.999,-10.452,-45.76,70.51,233.16,-1.072,-1.138,-6.087,-153.48,5.87,124.67,-2.258,-3.440,-4.320,-4.85,112.23,123.57
20190930-1616-FRANKFURT_1-01-295,Barani A,-5.396,0.388,-5.085,-61.75,-69.25,73.43,-0.290,1.000,-9.245,-193.10,-108.76,128.85,-0.836,-2.998,-7.358,-128.58,117.43,163.05,-5.993,-1.144,-5.667,-44.27,160.44,34.91
20190930-1616-FRANKFURT_1-01-296,Doppelsalto C,-17.129,-1.754,-14.881,17.72,200.98,8.72,-48.425,2.831,-19.708,57.63,704.49,30.05,-28.452,1.719,-6.801,64.20,536.16,-19.20,-5.584,-0.592,-10.136,-7.51,155.04,22.99
20190930-1616-FRANKFURT_1-01-297,Barani C,-8.640,0.504,-2.384,-31.38,-299.87,50.72,-5.229,2.898,-8.541,-52.55,-110.17,239.85,-2.665,-3.352,-5.470,-81.01,83.72,182.70,-2.922,-2.676,-3.384,-46.34,176.62,97.41
20190930-1616-FRANKFURT_1-01-311,Barani A,-3.626,1.364,-4.137,-43.36,-83.39,82.30,-0.162,0.455,-8.742,-195.26,-118.27,127.80,-1.073,-2.903,-6.801,-128.07,88.80,175.86,-5.800,-2.160,-5.734,-36.77,172.76,31.25
20190930-1616-FRANKFURT_1-01-312,Doppelsalto C,-15.183,-1.145,-14.222,5.83,206.89,13.21,-45.393,1.830,-17.231,32.69,689.93,41.76,-32.650,1.299,-30.996,-4.86,658.88,-6.68,-5.529,-1.188,-7.842,-8.25,142.91,12.08
20190930-1616-FRANKFURT_1-01-313,Barani C,-17.336,1.716,-1.940,-61.49,-413.31,24.20,-5.891,8.417,-12.203,2.70,38.32,202.62,-0.937,-1.204,-6.396,-169.14,-1.97,155.02,-2.821,-2.855,-4.220,-56.36,80.57,129.31
20190930-1616-FRANKFURT_1-01-325,Barani A,-4.583,1.111,-5.054,-60.17,-80.98,57.30,-0.112,1.089,-9.169,-195.74,-115.76,132.83,-1.124,-2.595,-7.446,-148.34,113.75,164.89,-4.830,-1.819,-6.116,-18.52,151.62,60.07
20190930-1616-FRANKFURT_1-01-326,Doppelsalto C,-15.700,-1.077,-15.051,11.43,222.48,-19.20,-43.267,3.034,-18.457,78.74,667.98,43.76,-31.137,2.158,-22.785,46.54,531.50,-23.72,-3.792,-0.726,-9.162,-7.24,137.45,11.12
20190930-1616-FRANKFURT_1-01-327,Barani C,-13.715,1.529,-2.217,-55.63,-370.49,55.44,-6.499,3.720,-10.078,-21.82,13.03,220.35,-2.180,-2.302,-6.555,-125.97,51.12,184.61,-4.348,-3.370,-4.808,-47.41,132.84,74.90
20190930-1616-FRANKFURT_1-01-328,Salto C,-3.562,-1.511,-8.622,-11.76,-48.54,-26.57,-23.037,-3.190,-18.576,-42.18,664.58,31.52,-0.379,-1.566,-4.424,-8.09,110.42,18.22,-3.091,-1.275,-3.373,-17.90,105.79,4.57
20190930-1616-FRANKFURT_1-01-344,Barani A,-3.429,1.077,-3.145,-51.51,-93.55,47.86,-1.166,1.630,-8.364,-181.42,-137.23,174.75,-1.795,-3.213,-7.379,-94.64,93.94,146.46,-3.530,-2.240,-6.521,-39.28,190.33,14.33
20190930-1616-FRANKFURT_1-01-345,Doppelsalto C,-13.388,-0.875,-15.328,10.85,214.28,-2.43,-45.192,-0.001,-18.480,7.59,677.32,35.26,-29.787,0.411,-30.657,15.62,616.67,-9.23,-4.165,-1.521,-9.079,-15.32,149.62,8.73
20190930-1616-FRANKFURT_1-01-346,Barani C,-11.831,0.521,-2.752,-61.87,-357.96,30.59,-0.175,-0.589,-4.873,-77.43,-95.44,138.41,-1.533,-1.067,-5.606,-117.59,-25.33,168.83,-2.665,-2.576,-3.295,-17.30,88.45,124.10
20190930-1616-FRANKFURT_1-01-347,Salto C,-3.641,-0.950,-8.049,-2.16,-22.34,-33.08,-30.772,-1.736,-22.134,-11.72,612.27,-22.30,-0.678,-1.195,-4.047,-19.37,116.57,5.79,-3.699,-1.017,-3.740,-22.50,110.88,-3.63
20190930-1616-FRANKFURT_1-01-361,Barani C,-17.271,2.552,-5.388,-93.48,-439.16,25.07,-4.584,5.273,-10.011,-24.20,37.77,218.76,-1.307,-1.537,-5.778,-143.90,54.74,163.51,-3.645,-1.995,-3.905,-8.93,97.29,109.53
20190930-1616-FRANKFURT_1-01-362,Salto C,-4.877,-1.354,-8.390,-11.90,-21.12,-30.59,-21.377,-1.469,-14.434,-10.59,552.34,30.28,-0.519,-1.175,-4.081,-26.37,129.26,11.57,-4.265,-0.451,-1.561,-5.06,100.49,18.62
20190930-1616-FRANKFURT_1-01-363,1 3/4 salto Vorwärts B,-25.795,0.084,-9.441,-0.37,-638.50,14.47,-10.632,-0.010,-13.185,-11.76,-380.86,-49.57,-2.463,-1.138,2.352,-32.51,-142.23,-10.05,-14.427,-0.758,-7.611,4.30,-436.50,2.07
20190930-1616-FRANKFURT_1-01-364,Fliffis aus C aus dem Rücken,-31.090,-2.836,-12.378,14.38,-591.28,60.22,-56.998,0.445,-22.597,-8.95,-753.68,-54.48,-17.245,9.956,-19.992,-99.90,-370.71,301.36,-11.675,2.606,-11.223,-77.98,180.49,329.39
20190930-1153-FRANKFURT_1-01-76,Salto C,-7.210,1.662,-8.263,-12.11,-108.86,38.24,-17.977,1.225,-11.644,38.60,449.11,-5.31,-0.847,-0.714,-3.137,31.18,139.24,8.69,-3.046,-0.501,-1.890,-0.94,86.28,6.10
20190930-1153-FRANKFURT_1-01-77,Barani A,-3.790,0.650,-2.550,-41.58,-95.18,99.75,-2.744,1.289,-8.669,-176.47,-138.57,173.70,-1.798,-1.836,-7.305,-146.27,104.00,187.28,-4.383,-0.895,-5.904,9.40,123.12,75.57
20190930-1153-FRANKFURT_1-01-78,Salto B,-11.120,-0.627,-5.842,-37.33,-149.47,-27.69,-22.576,3.226,-17.416,51.73,654.74,10.41,1.446,-1.660,-5.915,12.13,124.67,19.68,-3.084,-1.669,-2.458,3.02,86.17,12.46
20190930-1153-FRANKFURT_1-01-79,Barani A,-2.487,-0.383,-4.014,-49.57,-88.23,73.92,-2.209,2.035,-8.953,-169.42,-164.53,143.97,-2.420,-2.456,-7.985,-149.42,86.71,231.82,-5.797,-1.440,-6.373,-0.62,141.70,60.02
20190930-1153-FRANKFURT_1-01-80,Salto A,1.743,-1.289,-5.577,2.92,93.68,16.08,-4.098,-0.331,-5.009,38.06,249.27,-16.20,-2.820,-0.559,-5.355,26.05,213.27,-15.58,-3.198,-0.466,-5.574,9.73,112.85,44.10
20190930-1153-FRANKFURT_1-01-87,Salto C,-9.313,0.375,-7.110,-4.49,-104.26,6.62,-16.979,1.036,-11.163,71.79,416.54,26.57,-0.814,-0.565,-3.295,6.41,152.88,-19.56,-2.301,-0.447,-3.068,-2.72,72.49,14.15
20190930-1153-FRANKFURT_1-01-88,Barani A,-3.017,0.468,-3.206,-54.20,-83.03,87.54,-4.072,1.892,-10.478,-151.01,-151.75,219.64,-2.737,-1.964,-7.502,-104.75,174.36,194.50,-4.616,-0.623,-3.907,15.33,125.46,46.22
20190930-1153-FRANKFURT_1-01-89,Salto B,-10.522,0.021,-6.626,-36.47,-153.85,-14.47,-21.796,3.162,-15.844,41.04,640.46,20.01,0.319,-0.414,-3.967,8.34,88.72,11.87,-0.815,-0.656,-4.842,2.63,101.95,22.35
20190930-1153-FRANKFURT_1-01-90,Barani A,-2.220,-0.464,-3.857,-58.08,-70.19,93.66,-3.189,2.111,-10.005,-174.55,-149.53,221.82,-2.362,-2.499,-6.806,-123.79,145.18,193.48,-6.571,-2.152,-3.518,-9.38,152.11,36.64
20190930-1153-FRANKFURT_1-01-91,Salto A,1.085,-0.310,-6.932,16.96,157.21,15.38,-1.439,-0.678,-5.885,36.34,220.54,-12.01,-2.410,-0.565,-5.028,10.28,146.60,-14.83,-4.700,-0.596,-5.671,37.71,185.96,39.40
20190930-1153-FRANKFURT_1-01-105,Salto A,-6.666,-0.021,-8.484,-8.68,-74.98,-0.18,-15.931,0.136,-6.246,57.89,413.18,-0.43,-0.472,-0.450,-3.977,15.42,132.48,-7.77,-2.955,0.344,-0.785,5.37,75.37,13.01
20190930-1153-FRANKFURT_1-01-106,Salto B,-13.696,-0.641,-7.071,-5.81,-169.57,-19.16,-26.141,3.280,-20.695,50.39,657.29,26.91,-0.249,-0.639,-4.401,24.01,141.11,18.96,-3.230,0.365,-1.879,8.63,91.26,7.19
20190930-1153-FRANKFURT_1-01-107,Salto C,1.357,-2.173,-7.000,10.96,130.51,13.75,-1.594,-0.451,-6.501,27.08,239.80,-13.47,-2.297,-0.700,-4.950,18.56,171.22,-9.73,-4.818,-0.129,-6.114,17.03,133.81,23.61
20190930-1153-FRANKFURT_1-01-108,Doppelsalto C,-13.744,0.772,-13.371,17.65,100.43,2.41,-42.192,2.511,-18.501,14.34,645.04,52.95,-32.806,1.730,-27.126,47.75,759.60,7.96,-3.114,-0.970,-8.944,-15.22,89.76,12.43
20190930-1153-FRANKFURT_1-01-125,Salto A,-7.471,0.643,-8.595,0.10,-93.10,25.27,-18.615,0.923,-10.105,97.99,420.39,-11.49,-1.165,-0.729,-3.040,18.47,143.67,-8.48,-2.558,-1.174,-2.253,-5.35,89.84,3.58
20190930-1153-FRANKFURT_1-01-126,Salto B,-13.885,-0.173,-6.881,-0.86,-173.95,-13.53,-25.366,3.284,-19.196,90.84,601.88,24.66,-0.624,-0.990,-4.233,35.05,132.45,-12.86,-3.844,0.070,-1.982,17.52,98.81,9.50
20190930-1153-FRANKFURT_1-01-127,Salto C,1.357,-1.142,-8.284,22.30,157.74,20.10,-2.168,-0.908,-6.459,30.25,213.73,-5.96,-2.385,-0.921,-5.722,23.20,198.00,-10.05,-3.896,-0.373,-6.351,19.53,118.09,19.77
20190930-1153-FRANKFURT_1-01-128,Doppelsalto C,-11.174,0.824,-12.432,8.89,106.56,9.88,-38.661,1.886,-17.472,14.66,618.95,17.99,-30.704,0.175,-20.923,28.01,697.87,5.26,-4.337,-0.499,-8.309,-32.02,11.03,-8.24
20190930-1153-FRANKFURT_1-01-139,3/4 Salto rw A,0.495,-1.155,-2.926,5.95,110.54,10.01,-1.187,-0.223,-4.301,22.53,139.98,14.11,-0.889,-0.609,-3.625,20.78,159.81,-9.64,-3.982,-0.532,-2.942,6.59,145.58,10.95
20190930-1153-FRANKFURT_1-01-140,Cody C,-14.983,2.902,-16.549,33.31,420.65,49.85,-12.807,-0.469,-10.448,59.88,400.03,-10.01,-1.405,-0.650,-4.807,18.72,180.27,-13.08,-3.976,-1.617,-5.580,-2.71,108.07,4.50
20190930-1153-FRANKFURT_1-01-141,Salto B,-15.310,-1.035,-8.675,-9.13,-201.91,-15.12,-28.732,2.495,-21.506,65.49,637.27,19.89,-0.084,-0.599,-4.707,6.62,157.21,2.59,-3.321,0.092,-2.231,-2.41,89.08,12.18
20190930-1153-FRANKFURT_1-01-142,Barani A,-3.137,0.742,-3.046,-77.12,-92.34,55.45,-1.492,1.892,-8.942,-166.38,-132.95,152.87,-1.575,-2.322,-8.296,-160.10,89.70,212.97,-3.153,-0.242,-6.329,-13.31,118.16,89.90
20190930-1153-FRANKFURT_1-01-143,Salto A,2.066,-0.645,-5.637,-5.77,91.53,7.79,-2.392,-0.005,-5.474,16.73,241.64,-9.09,-1.987,-0.624,-6.186,22.56,202.18,-11.86,-4.860,-0.334,-4.891,15.47,106.23,39.23
20190930-1153-FRANKFURT_1-01-144,Schraubensalto,0.628,0.211,-4.298,68.78,105.43,185.20,-5.926,-0.257,-0.659,154.63,-93.97,322.72,-4.064,-2.664,-10.236,-147.94,-73.15,343.47,-4.433,-0.408,-5.959,-21.62,135.57,209.66
20190930-1153-FRANKFURT_1-01-161,3/4 Salto rw A,0.088,-0.430,-2.421,-5.08,86.32,17.17,-1.542,-0.171,-2.599,37.14,159.90,-2.07,-0.986,-0.943,-3.217,18.83,153.81,-9.21,-1.762,-0.730,-4.726,10.49,169.25,-0.56
20190930-1153-FRANKFURT_1-01-162,Cody C,-8.340,2.458,-21.367,45.98,526.93,60.59,-5.018,-1.282,-6.321,50.41,288.01,-6.52,-1.811,-0.470,-5.180,6.09,185.49,-0.14,-1.899,0.042,-6.216,17.93,100.79,19.61
20190930-1153-FRANKFURT_1-01-163,Salto B,-15.037,-0.269,-7.933,-34.40,-199.09,-18.69,-27.930,2.747,-19.329,96.40,595.05,-7.04,-1.510,-1.200,-5.269,37.40,203.34,4.30,-3.219,-0.609,-3.297,0.88,86.74,14.79
20190930-1153-FRANKFURT_1-01-164,Barani A,-3.052,-0.517,-3.763,-43.32,-83.47,76.47,-2.125,3.086,-8.936,-152.69,-131.25,156.28,-2.107,-2.326,-7.662,-144.33,53.47,212.07,-2.801,-0.296,-6.041,-13.86,122.57,101.79
20190930-1153-FRANKFURT_1-01-165,Salto A,2.450,-0.813,-5.347,5.17,105.64,13.70,-2.218,-0.673,-5.745,67.23,246.31,-20.01,-1.734,-0.860,-6.019,36.04,204.30,-2.30,-4.449,-0.232,-4.005,7.93,108.56,27.00
20190930-1153-FRANKFURT_1-01-166,Schraubensalto,0.671,0.273,-4.155,69.37,90.84,185.85,-4.315,-0.029,-1.047,175.28,-74.94,276.95,-5.173,-1.216,-10.759,-127.96,-160.81,335.28,-5.318,-2.391,-5.878,-34.61,147.35,241.36
20190930-1153-FRANKFURT_1-01-182,Salto A,1.101,-0.451,-3.800,10.54,114.66,4.56,-1.808,-0.521,-5.572,24.67,218.26,-3.90,-2.398,-0.384,-3.916,5.37,149.76,5.00,-1.950,-0.076,-5.541,17.60,142.18,15.49
20190930-1153-FRANKFURT_1-01-183,Schraubensalto,-0.387,0.075,-1.954,115.29,68.19,200.70,-5.921,-2.738,-2.846,80.44,-177.08,297.16,-7.180,-1.901,-10.046,-106.64,-92.53,388.44,-4.035,0.187,-5.779,9.67,179.37,148.42
20190930-1153-FRANKFURT_1-01-184,Rudi,-5.598,4.117,-4.316,-136.02,-95.54,390.88,-14.336,-0.147,2.248,188.78,-26.14,548.16,-12.281,-2.840,-10.434,-105.46,-156.88,514.92,-6.229,0.414,-6.314,22.16,167.47,179.20
20190930-1153-FRANKFURT_1-01-185,Salto C,-5.098,-0.725,-10.121,-6.59,-20.55,-12.19,-12.614,0.594,-2.442,104.53,358.16,-30.41,-1.118,-0.283,-3.810,1.82,131.17,-2.44,-2.841,-0.100,-1.492,15.51,74.52,-0.99
20190930-1153-FRANKFURT_1-01-186,Fliffis Rudi C,-46.957,4.170,-4.463,-44.43,-636.74,-21.95,-28.446,11.939,-23.504,-82.72,-529.45,276.32,-25.004,-3.097,10.121,484.87,-168.57,800.43,-11.119,0.333,-13.093,17.61,187.57,299.04
20190930-1153-FRANKFURT_1-01-200,Salto A,1.240,-0.662,-5.868,6.77,131.92,34.67,-2.207,-0.404,-5.906,68.33,221.30,-12.55,-1.805,-0.117,-6.235,49.37,208.32,-10.69,-3.138,-0.080,-5.921,10.97,100.25,28.78
20190930-1153-FRANKFURT_1-01-201,Schraubensalto,-0.892,-0.159,-2.860,95.77,93.38,222.05,-7.713,-2.248,-1.557,132.87,-159.23,356.01,-3.944,-2.512,-9.963,-204.61,5.47,319.21,-5.011,-0.764,-6.485,-17.71,126.31,126.66
20190930-1153-FRANKFURT_1-01-202,Rudi,-8.754,6.297,-5.507,-110.79,-166.43,460.29,-17.882,0.182,6.074,269.58,-83.23,647.93,-5.856,-3.245,-10.767,-214.75,-8.17,361.01,-6.252,-0.081,-5.473,-18.19,144.89,97.06
20190930-1153-FRANKFURT_1-01-203,Salto C,-9.174,-0.284,-9.124,-16.65,-88.41,-2.24,-15.732,0.187,-7.992,74.01,395.73,13.31,-0.818,-0.568,-3.449,33.66,152.96,-6.44,-2.232,-0.192,-3.741,3.12,72.79,1.57
20190930-1153-FRANKFURT_1-01-204,Fliffis Rudi C,-51.698,6.295,-9.252,-57.52,-642.39,-29.85,-21.377,0.155,-24.767,-127.76,-315.56,198.86,-24.844,-6.601,3.649,427.15,-254.62,784.96,-11.040,-3.522,-14.340,-13.64,221.94,299.27
20190930-1153-FRANKFURT_1-01-205,Doppelsalto C,-10.125,-0.345,-16.691,8.06,142.01,-9.80,-39.157,3.039,-19.836,10.45,619.81,17.33,-36.666,2.502,-31.467,95.02,813.32,28.38,-3.291,0.238,-7.431,-11.43,93.58,7.35
20190930-1153-FRANKFURT_1-01-219,Salto A,1.177,-1.460,-5.340,-4.92,83.40,29.85,-1.582,-0.082,-5.096,21.81,211.08,-6.53,-2.724,-0.779,-3.742,26.70,165.98,-4.05,-1.919,-0.302,-4.669,-5.56,137.17,6.96
20190930-1153-FRANKFURT_1-01-220,Schraubensalto,-1.559,-2.042,-1.367,106.19,68.44,226.93,-6.102,-2.571,-2.160,88.65,-201.01,282.42,-6.020,-1.491,-9.298,-91.32,-99.09,357.10,-3.408,0.051,-5.808,4.69,170.28,154.74
20190930-1153-FRANKFURT_1-01-221,Rudi,-6.759,4.464,-4.992,-130.81,-132.91,380.59,-15.792,1.865,2.292,159.08,-7.25,579.58,-12.901,-1.950,-9.885,-85.49,-214.65,505.48,-4.222,0.986,-5.655,32.57,148.48,189.07
20190930-1153-FRANKFURT_1-01-222,Salto C,-1.145,1.783,-10.315,-18.90,-0.92,11.94,-9.137,-0.385,4.809,56.36,314.59,-28.90,-1.087,-0.765,-3.739,10.92,142.43,-10.67,-3.607,-0.199,-3.191,-17.07,89.19,22.80
20190930-1153-FRANKFURT_1-01-223,Fliffis Rudi C,-49.312,2.716,-7.448,-33.59,-658.25,-31.29,-22.557,4.368,-20.156,-28.28,-283.12,259.76,-22.708,-4.324,7.057,453.60,-181.80,714.74,-10.023,-2.964,-13.033,-14.19,215.55,302.59
20190930-1153-FRANKFURT_1-01-224,Doppelsalto C,-18.930,1.383,-16.751,35.56,134.11,15.40,-42.476,4.285,-24.037,26.13,645.82,58.15,-33.947,4.300,-7.684,55.95,519.31,-42.81,-4.065,0.385,-9.928,6.85,144.23,42.12
20190930-1153-FRANKFURT_1-01-236,3/4 Salto rw A,0.939,-1.581,-2.417,0.97,84.25,34.61,-1.564,-0.926,-1.641,27.47,157.94,-27.16,-1.262,-0.911,-3.219,16.82,152.98,-16.24,-1.770,-0.907,-4.234,-0.74,156.69,-5.71
20190930-1153-FRANKFURT_1-01-237,Cody C,-14.473,2.177,-18.548,35.53,508.11,74.65,-4.064,-0.503,-1.508,53.47,316.99,-2.63,-1.796,-0.603,-5.019,23.70,187.53,1.79,-2.936,-0.394,-6.271,8.43,102.18,18.59
20190930-1153-FRANKFURT_1-01-238,Salto B,-13.531,-1.258,-6.801,-26.70,-178.19,-14.54,-28.701,5.207,-20.235,117.95,622.03,12.85,-0.395,-0.621,-4.815,35.86,142.72,-2.64,-2.924,-0.275,-4.377,-12.77,87.14,12.00
20190930-1153-FRANKFURT_1-01-239,Barani A,-3.881,-0.057,-1.443,-54.39,-117.71,85.14,-2.322,1.391,-8.835,-178.51,-121.21,164.02,-1.458,-2.679,-7.683,-149.95,101.20,193.71,-3.110,-1.003,-5.365,2.66,110.62,92.08
20190930-1153-FRANKFURT_1-01-240,Salto A,0.324,-1.171,-5.914,29.26,141.74,31.96,-2.305,0.064,-6.658,54.24,206.91,-2.27,-1.968,-0.845,-6.184,20.33,208.74,-26.85,-3.753,-0.607,-4.892,11.41,107.45,15.82
20190930-1153-FRANKFURT_1-01-241,Schraubensalto,-1.488,-0.013,-3.000,110.53,118.78,226.97,-6.888,-3.004,-2.460,119.36,-200.82,323.88,-4.500,-2.771,-10.133,-177.86,-17.67,343.19,-2.826,0.835,-5.976,-14.85,113.26,161.62
20190930-1153-FRANKFURT_1-01-242,Rudi,-6.529,3.457,-5.143,-126.42,-133.69,367.12,-15.843,0.842,3.784,218.22,-15.00,591.76,-9.799,-2.961,-11.684,-165.21,-73.27,494.02,-4.363,0.051,-4.458,27.06,110.43,158.20
20190930-1153-FRANKFURT_1-01-243,Salto C,-7.749,-1.208,-7.045,6.86,-33.31,16.53,-17.378,2.393,-11.201,91.79,448.47,1.02,-1.149,-0.991,-2.714,0.79,131.48,-19.45,-1.941,-1.583,-3.330,7.98,76.77,1.98
20190930-1153-FRANKFURT_1-01-244,Fliffis Rudi C,-50.490,4.061,-7.079,-46.08,-643.00,-14.78,-25.765,5.028,-22.790,-60.91,-337.32,226.12,-25.033,-4.209,7.170,468.12,-206.33,767.16,-8.466,-0.941,-14.679,-37.48,221.03,338.49
20190930-1153-FRANKFURT_1-01-245,Doppelsalto C,-16.903,1.484,-16.570,45.25,133.04,-16.77,-41.621,6.356,-23.197,78.13,614.68,22.65,-28.811,0.729,-26.980,89.21,558.75,-17.47,-3.565,-0.819,-9.325,-3.74,151.16,-3.44
20190930-1247-FRANKFURT_2-01-28,Salto C,-4.039,0.213,-10.475,-22.60,-27.45,4.52,-18.561,0.338,-15.414,3.60,523.70,16.91,-1.160,-1.284,-4.412,-9.59,144.25,6.41,-4.081,-0.058,-3.172,-35.51,105.56,-10.61
20190930-1247-FRANKFURT_2-01-29,Salto B,-14.348,-1.005,-8.784,7.49,-163.12,37.42,-18.548,-1.044,-14.570,-9.24,569.75,-17.08,0.141,0.359,-4.615,15.45,109.64,33.52,-5.090,-0.304,-5.376,-4.53,136.48,14.68
20190930-1247-FRANKFURT_2-01-30,Salto A,1.223,0.517,-6.617,37.58,132.30,-9.90,-2.182,-0.207,-6.859,20.49,186.64,-8.11,-3.219,-0.766,-6.615,4.19,214.58,-4.52,-6.612,0.124,-3.933,24.37,155.68,25.45
20190930-1247-FRANKFURT_2-01-31,Salto B,-12.062,-0.444,-9.739,12.04,-181.06,73.58,-17.046,-1.100,-12.035,25.77,571.42,-53.57,-1.150,0.455,-1.781,-24.08,120.72,-16.96,-2.768,-0.025,-5.049,15.20,125.83,31.50
20190930-1247-FRANKFURT_2-01-32,Salto C,-4.384,-0.710,-10.013,-0.64,-51.36,11.40,-23.115,0.633,-17.765,32.51,606.02,-8.75,-0.424,0.008,-4.351,-1.57,109.42,24.66,-1.993,-1.412,-4.671,-0.57,136.77,24.60
20190930-1247-FRANKFURT_2-01-43,Salto C,-2.862,-0.124,-8.150,5.16,-14.09,10.75,-17.442,-1.321,-14.567,-11.79,583.31,-13.59,-0.344,-0.757,-4.293,-16.58,70.68,30.68,-3.329,-0.443,-4.072,-12.32,144.87,-5.76
20190930-1247-FRANKFURT_2-01-44,Salto B,-2.001,-0.594,-7.066,3.78,49.49,-1.89,-8.150,-0.919,-6.126,7.78,273.60,-17.03,-7.597,-0.423,-4.194,-9.14,263.47,-6.27,-5.450,-0.617,-4.037,-8.05,224.47,-3.77
20190930-1247-FRANKFURT_2-01-45,Salto A,1.242,-0.845,-5.016,8.72,150.01,-57.24,-2.094,-1.557,-7.034,15.26,210.14,-28.07,-2.844,-1.974,-6.554,1.74,176.71,-27.13,-5.603,-1.227,-6.608,-24.83,220.54,-4.53
20190930-1247-FRANKFURT_2-01-46,Salto B,-7.462,-0.027,-8.394,-10.38,-17.91,21.50,-17.197,-1.390,-11.812,-7.60,529.62,-5.73,-1.456,-0.244,-3.398,0.57,150.11,14.32,-2.569,-0.584,-4.069,-28.42,102.44,12.34
20190930-1247-FRANKFURT_2-01-47,Salto C,-4.394,0.306,-8.806,-35.30,55.84,-3.23,-16.058,-1.080,-6.405,5.61,450.84,17.68,-3.483,-1.163,-3.755,-17.74,173.48,-7.44,-3.802,-0.568,-3.242,-6.50,181.05,9.84
20190930-1247-FRANKFURT_2-01-76,Salto C,-1.384,-0.441,-9.017,7.47,-35.45,-6.50,-19.348,-0.634,-18.976,-6.98,570.16,7.36,-1.038,-0.560,-4.248,-11.76,131.49,4.49,-4.119,-0.503,-3.503,-5.86,93.01,12.42
20190930-1247-FRANKFURT_2-01-77,Barani C,-15.060,2.978,-2.614,-88.30,-441.24,9.53,-2.022,3.930,-8.450,-61.49,8.49,182.95,-1.468,-3.913,-5.570,-59.31,19.82,242.97,-2.627,-1.120,-4.743,-19.85,175.64,29.37
20190930-1247-FRANKFURT_2-01-78,Salto B,-12.081,-0.272,-8.504,6.98,-113.08,29.31,-17.749,0.036,-12.342,8.29,566.72,-24.52,-0.184,-0.724,-2.802,-2.16,142.02,-3.43,-4.111,-0.559,-4.324,8.39,105.06,9.92
20190930-1247-FRANKFURT_2-01-79,Barani C,-15.866,3.705,-2.969,-98.69,-421.38,46.89,-2.164,0.727,-6.946,-97.53,-14.32,195.23,-0.346,-1.497,-5.510,-119.39,26.79,179.35,-3.145,-1.887,-3.756,-27.24,79.88,124.24
20190930-1247-FRANKFURT_2-01-80,Salto A,5.429,-0.337,-3.335,-15.03,94.80,-40.88,-1.586,-1.023,-7.139,22.71,209.92,-7.43,-3.189,-1.140,-6.866,-6.37,216.17,-15.50,-5.082,0.077,-5.822,1.15,160.55,16.61
20190930-1247-FRANKFURT_2-01-85,Salto C,-2.233,0.033,-8.707,-7.52,-9.03,-0.17,-17.967,0.575,-17.246,19.40,572.33,5.76,-0.732,-0.631,-4.759,-17.80,124.38,4.36,-4.378,-0.487,-3.848,-6.48,92.84,22.89
20190930-1247-FRANKFURT_2-01-86,Barani C,-14.304,2.596,-3.632,-83.03,-460.24,11.74,-2.169,1.064,-6.495,-91.66,-27.12,202.12,-2.163,-0.357,-6.636,-157.44,1.96,205.39,-3.910,-2.508,-4.062,-20.69,79.57,110.08
20190930-1247-FRANKFURT_2-01-87,Salto B,-11.995,-0.053,-9.989,9.77,-140.61,22.27,-19.017,-0.845,-13.683,24.03,600.35,-29.89,0.808,0.686,-3.214,-30.78,112.01,-15.56,-5.106,-0.157,-3.919,12.70,109.82,33.42
20190930-1247-FRANKFURT_2-01-88,Barani C,-15.652,2.817,-3.928,-68.07,-421.21,15.10,-3.525,0.821,-6.217,-35.36,-23.21,197.69,2.379,-1.457,-5.371,-122.07,-11.64,177.14,-1.965,-1.631,-5.047,-41.41,114.03,103.80
20190930-1247-FRANKFURT_2-01-89,Salto A,1.027,-2.292,-2.443,2.11,105.32,-28.36,-1.762,-1.386,-7.270,9.20,220.34,-17.42,-2.763,-0.897,-6.725,1.92,204.76,-1.04,-3.602,-0.522,-5.480,-1.95,164.99,-13.62
20190930-1247-FRANKFURT_2-01-106,3/4 Salto rw A,0.544,-1.184,-2.485,4.31,111.07,1.98,-0.558,-0.509,-4.187,2.43,151.96,-14.05,-0.806,-1.257,-3.423,-1.82,163.98,-7.91,-3.173,0.831,-2.408,17.81,176.76,8.25
20190930-1247-FRANKFURT_2-01-107,Cody C,-9.279,-0.015,-15.218,-35.71,411.86,10.05,-21.923,0.513,-0.163,26.03,348.29,-159.87,-1.469,-1.338,-5.354,-44.70,162.47,-1.89,-4.687,-0.550,-5.253,-1.98,116.89,29.54
20190930-1247-FRANKFURT_2-01-109,Salto B,-11.691,-1.031,-6.725,-15.03,-94.61,18.94,-20.255,-1.171,-17.353,17.79,594.37,-15.91,0.204,-1.805,-5.983,-3.67,119.54,11.88,-4.981,-0.120,-3.928,-12.45,92.92,19.18
20190930-1247-FRANKFURT_2-01-110,Barani C,-16.914,2.637,-3.505,-77.44,-432.07,13.36,-1.576,5.486,-10.662,-34.27,33.00,184.60,-1.365,-1.646,-5.799,-128.72,27.23,164.09,-2.687,-2.231,-5.140,-51.06,123.32,109.49
20190930-1247-FRANKFURT_2-01-111,Schraubensalto,0.187,3.543,-3.073,125.36,128.73,173.40,-6.474,0.456,-0.576,261.34,-55.78,331.42,-6.377,-4.543,-8.671,-49.71,-8.16,408.99,-6.540,-2.749,-5.633,-48.64,236.37,109.84
20190930-1247-FRANKFURT_2-01-127,3/4 Salto rw A,0.639,-0.736,-1.323,16.22,121.60,-9.05,-1.074,-0.615,-3.206,9.97,140.48,0.82,-0.958,-0.504,-3.489,-8.05,146.91,-8.40,-0.595,-0.771,-5.480,-4.70,202.31,27.38
20190930-1247-FRANKFURT_2-01-128,Cody C,-6.647,-0.410,-15.407,1.88,403.41,-34.55,-20.769,0.662,16.710,25.05,346.51,-168.94,-1.425,-0.631,-6.307,-12.71,159.93,14.45,-3.633,-0.460,-6.282,2.95,120.56,21.41
20190930-1247-FRANKFURT_2-01-130,Salto B,-9.544,-0.258,-7.238,6.27,-103.21,17.12,-17.342,-0.798,-19.914,20.26,584.17,13.70,0.679,-1.455,-5.429,-6.05,91.63,13.97,-4.010,-0.141,-4.724,-6.40,107.95,21.51
20190930-1247-FRANKFURT_2-01-131,Barani C,-17.454,3.569,-5.078,-73.63,-480.83,-2.88,-5.094,9.502,-11.340,16.93,63.50,191.18,-0.916,-0.989,-5.443,-142.24,-0.78,165.12,-2.935,-1.917,-3.387,-21.71,76.72,127.58
20190930-1247-FRANKFURT_2-01-132,Schraubensalto,1.545,3.803,-4.019,96.23,131.12,136.05,-4.469,0.405,-2.133,216.18,-40.62,252.34,-6.369,-0.798,-10.313,-71.75,-183.86,384.86,-6.011,-5.854,-6.976,-59.56,220.53,140.69
20190930-1247-FRANKFURT_2-01-148,3/4 Salto rw A,0.115,-0.788,-2.214,3.35,72.84,-13.80,-0.290,-0.591,-2.693,-1.43,189.66,19.83,-0.891,-0.801,-4.437,14.44,203.43,-9.36,-2.304,-0.135,-3.319,30.04,189.04,-4.00
20190930-1247-FRANKFURT_2-01-149,Cody C,-7.021,-0.457,-6.959,-16.10,94.58,-18.20,-17.131,-0.325,-7.817,17.91,510.45,-4.44,-2.735,-0.339,-3.027,-8.25,144.41,10.75,-4.178,-0.407,-3.935,-1.90,164.03,-5.30
20190930-1247-FRANKFURT_2-01-151,Salto B,-8.788,0.406,-5.352,-0.48,-126.89,-17.04,-17.366,-0.450,-11.552,19.36,622.23,3.71,0.712,-0.989,-4.537,-11.48,57.28,5.64,-3.670,-0.728,-4.415,-3.36,96.56,7.89
20190930-1247-FRANKFURT_2-01-152,Barani C,-17.038,2.023,-2.311,-57.20,-427.66,27.73,-1.799,4.853,-9.698,-28.17,26.86,197.51,-1.666,-1.682,-6.171,-142.26,31.60,156.45,-3.150,-2.057,-4.194,-38.96,94.33,124.69
20190930-1247-FRANKFURT_2-01-153,Schraubensalto,0.994,2.956,-4.297,83.31,128.65,132.05,-3.785,0.555,-1.975,201.95,-28.68,243.71,-6.755,-0.704,-9.092,-36.94,-164.46,422.70,-2.675,-2.029,-5.632,-53.27,205.93,86.53
20190930-1247-FRANKFURT_2-01-171,Barani C,-17.959,2.371,-5.638,-69.52,-469.24,40.19,-5.821,3.541,-9.480,1.57,18.58,208.98,-0.755,-1.832,-5.768,-136.12,37.31,134.38,-2.953,-2.570,-4.327,-23.38,92.91,115.96
20190930-1247-FRANKFURT_2-01-172,Schraubensalto,1.955,0.643,-6.219,90.56,107.17,110.68,-5.140,-0.219,-0.963,249.69,23.32,297.05,-4.691,-2.883,-9.329,-86.28,-61.30,360.96,-5.580,-3.351,-6.329,-66.67,176.00,138.82
20190930-1247-FRANKFURT_2-01-173,Salto A,1.904,-0.617,-7.587,10.01,143.33,-41.13,-1.386,-1.500,-7.006,-0.65,217.01,-27.28,-1.403,-0.696,-6.121,-19.60,187.65,-5.34,-4.918,-1.214,-5.079,-27.92,125.33,-15.66
20190930-1247-FRANKFURT_2-01-174,Rudi,-8.339,2.560,-7.100,-35.18,-243.71,233.22,-13.376,2.232,-6.585,244.90,76.05,562.95,-11.046,-6.280,-7.894,84.38,-85.56,534.30,-5.752,-3.346,-5.097,-48.88,215.09,170.74
20190930-1247-FRANKFURT_2-01-175,Salto C,-5.625,0.367,-8.378,0.36,-22.61,-43.62,-14.902,-0.549,-7.431,14.27,459.83,-32.52,-2.923,-0.827,-2.301,-6.04,145.01,8.22,-3.430,-0.597,-3.765,8.00,135.56,0.59
20190930-1247-FRANKFURT_2-01-176,Fliffis C,-42.491,0.051,-8.078,-13.75,-682.92,-65.58,-53.853,8.299,-29.177,-108.50,-739.45,49.44,7.652,5.846,-11.153,-190.25,-48.37,313.28,-5.766,-5.251,-8.951,-76.40,212.43,146.45
20190930-1247-FRANKFURT_2-01-195,Barani C,-15.168,3.162,-5.774,-97.39,-412.47,-4.52,-3.112,6.806,-12.126,-38.47,38.66,217.18,-1.220,-1.717,-5.836,-132.42,31.52,174.51,-2.045,-1.383,-4.650,-34.96,115.69,89.27
20190930-1247-FRANKFURT_2-01-196,Schraubensalto,0.251,1.014,-4.757,123.52,103.48,190.86,-6.515,0.384,-0.126,215.32,-81.54,293.60,-8.447,-6.195,-7.114,23.61,-20.83,461.32,-5.698,-1.969,-5.747,-9.78,244.44,69.44
20190930-1247-FRANKFURT_2-01-197,Salto A,1.717,-1.090,-6.260,9.04,147.79,-4.66,-1.518,-1.386,-5.825,-6.24,191.83,-27.10,-1.456,-0.837,-5.991,-14.58,166.53,-16.70,-4.531,-0.589,-5.432,-10.07,141.28,-2.64
20190930-1247-FRANKFURT_2-01-198,Rudi,-6.237,1.444,-7.370,-55.35,-300.52,208.40,-9.691,-3.098,-4.707,261.24,57.95,556.96,-11.722,-5.883,-6.757,200.49,-125.24,532.44,-8.341,0.163,-5.672,-32.86,267.85,122.51
20190930-1247-FRANKFURT_2-01-199,Salto C,-6.301,0.761,-11.602,5.96,-117.07,15.12,-19.330,-2.068,-24.512,-19.18,675.71,-17.56,-0.788,-1.440,-5.192,-7.77,131.92,38.25,-4.639,-0.700,-3.953,-23.25,90.01,32.33
20190930-1247-FRANKFURT_2-01-200,Fliffis C,-40.527,-0.920,-10.004,16.27,-714.10,-80.47,-50.122,10.805,-31.230,-161.78,-711.33,74.66,-0.368,6.499,-9.654,-192.82,-261.65,235.91,-5.866,-6.831,-10.229,-79.50,221.55,205.23
20190930-1247-FRANKFURT_2-01-220,Barani C,-18.432,3.641,-5.997,-86.72,-498.99,17.53,-3.232,7.811,-10.282,-18.90,45.05,209.84,-0.995,-1.157,-4.753,-131.61,25.80,148.12,-2.627,-1.652,-3.569,-38.19,97.11,85.80
20190930-1247-FRANKFURT_2-01-221,Schraubensalto,-0.245,3.384,-4.355,111.25,119.59,132.58,-5.806,0.205,-0.405,218.42,-68.19,276.46,-7.063,-4.851,-8.178,-5.12,-37.69,418.36,-5.818,-2.863,-4.803,-61.52,204.53,73.80
20190930-1247-FRANKFURT_2-01-222,Salto A,3.566,1.274,-5.251,4.06,141.17,-49.20,-0.854,-0.820,-6.106,13.41,231.78,-6.63,-1.248,-0.687,-6.048,3.79,152.26,-0.20,-4.807,-0.569,-5.482,-2.21,150.07,-7.93
20190930-1247-FRANKFURT_2-01-223,Rudi,-7.329,2.211,-7.317,-46.69,-276.07,230.95,-12.683,1.710,-7.202,270.15,15.38,550.33,-13.274,-8.997,-6.162,196.24,-32.96,611.90,-4.713,-2.095,-4.391,-8.11,247.36,74.88
20190930-1247-FRANKFURT_2-01-224,Salto C,-1.302,0.574,-5.466,20.63,30.20,-24.11,-8.006,-0.271,-5.694,6.37,328.75,-3.08,-5.475,-0.822,-4.650,-4.11,221.48,-9.54,-4.613,-0.457,-4.444,2.45,208.57,6.40
20190930-1247-FRANKFURT_2-01-242,Barani C,-17.675,3.715,-7.726,-82.09,-503.38,24.02,-7.178,8.821,-11.020,89.20,51.58,188.00,-0.798,-1.236,-5.735,-142.71,32.43,138.63,-3.123,-2.355,-3.838,-17.10,90.45,97.17
20190930-1247-FRANKFURT_2-01-243,Schraubensalto,1.130,1.377,-4.094,95.28,109.54,140.36,-5.860,-0.077,-0.262,245.31,-83.87,279.25,-7.262,-4.788,-8.676,-29.86,-19.34,396.28,-6.222,-2.610,-5.430,-52.32,201.26,79.00
20190930-1247-FRANKFURT_2-01-244,Salto A,2.464,-1.484,-4.482,25.25,126.22,-42.44,-0.806,-0.741,-6.689,14.45,220.81,-24.16,-1.773,-1.276,-6.208,-3.30,195.97,-5.74,-5.896,-0.828,-4.544,-3.52,133.27,-0.78
20190930-1247-FRANKFURT_2-01-245,Rudi,-7.708,1.045,-6.949,-49.14,-275.65,240.38,-12.188,-1.237,-6.438,302.68,54.49,573.77,-10.905,-6.653,-6.791,168.38,-23.62,555.73,-7.738,-1.678,-5.457,-45.97,213.63,125.29
20190930-1247-FRANKFURT_2-01-246,Salto C,-6.106,0.426,-7.096,-1.61,17.81,-15.12,-20.944,-1.605,-19.508,-10.11,639.72,15.75,-0.470,-1.343,-3.857,-18.63,93.38,19.24,-2.995,-0.645,-4.469,-16.87,109.78,15.28
20190930-1247-FRANKFURT_2-01-247,Fliffis C,-37.937,1.163,-8.928,-22.45,-670.04,-47.00,-52.984,7.193,-25.775,-69.56,-747.57,51.42,-20.897,-4.652,-3.510,-7.67,-57.68,279.14,-5.800,-4.910,-8.445,-83.74,179.21,209.20
20190930-1247-FRANKFURT_2-01-263,3/4 Salto rw A,1.792,-0.323,-2.238,16.43,93.51,-23.15,-0.179,-0.680,-3.172,12.47,142.10,-21.25,-0.747,-0.971,-3.436,2.12,159.88,-13.85,0.921,-0.503,-5.475,-25.77,233.16,53.30
20190930-1247-FRANKFURT_2-01-264,Cody C,-7.040,0.513,-18.199,-1.07,435.49,-27.11,-2.703,0.495,-0.376,-84.96,294.14,6.15,-2.223,-0.518,-6.413,-17.84,187.83,10.82,-4.215,-0.919,-6.070,1.48,125.42,18.18
20190930-1247-FRANKFURT_2-01-266,Salto B,-10.387,-0.633,-6.517,3.67,-129.03,17.84,-20.140,-1.177,-16.177,-14.95,583.44,-14.69,-0.178,-0.513,-4.678,-16.84,134.68,-6.27,-4.719,-0.567,-3.033,-15.24,97.70,1.98
20190930-1247-FRANKFURT_2-01-267,Barani C,-14.058,1.544,-3.973,-71.45,-416.15,24.37,-2.093,3.908,-8.385,-45.53,20.16,176.72,-1.280,-1.429,-6.192,-130.61,14.87,183.69,-2.968,-1.598,-4.453,-35.14,98.15,104.11
20190930-1247-FRANKFURT_2-01-268,Schraubensalto,-0.857,0.216,-2.342,128.94,130.84,193.77,-7.916,-0.719,0.162,210.58,-92.77,334.33,-9.206,-9.023,-6.456,37.63,71.19,472.38,-6.236,-2.303,-5.540,-8.17,251.60,41.21
20190930-1247-FRANKFURT_2-01-269,Salto A,2.180,-0.876,-5.620,-4.20,156.23,-54.52,-0.835,-1.205,-6.535,32.05,207.99,-20.81,-1.713,-1.372,-5.788,-11.11,178.08,-20.57,-5.421,-0.638,-5.248,-17.76,138.86,-20.71
20190930-1247-FRANKFURT_2-01-270,Rudi,-6.550,0.199,-7.840,-87.72,-225.21,229.69,-11.355,0.079,-6.875,174.83,25.03,583.23,-21.352,-12.337,-2.856,296.22,-52.59,732.15,-3.618,0.014,-6.809,-10.52,268.58,42.82
20190930-1247-FRANKFURT_2-01-271,Salto C,-5.302,-0.355,-8.800,-11.97,-66.89,18.13,-27.938,-0.921,-28.550,2.39,663.32,1.66,-0.600,-0.993,-4.100,-18.30,113.93,20.76,-4.178,-0.757,-4.558,12.86,112.54,24.44
20190930-1247-FRANKFURT_2-01-272,Fliffis C,-34.422,-0.435,-7.729,8.03,-633.41,-27.84,-51.884,2.927,-25.842,-27.03,-740.42,58.72,-7.214,17.114,-18.714,25.79,-20.36,332.74,-5.900,-3.824,-9.547,-79.77,176.65,214.19
20190930-1247-FRANKFURT_2-01-289,3/4 Salto rw A,0.981,-0.703,-2.128,13.41,92.11,-22.81,-0.683,-0.178,-3.268,7.41,146.25,1.70,-0.696,-0.993,-3.160,4.16,148.84,-12.84,-1.207,-1.017,-4.819,6.26,206.73,5.02
20190930-1247-FRANKFURT_2-01-290,Cody C,-3.219,-0.773,-13.691,-28.22,253.63,-4.28,-6.417,0.870,23.301,-9.65,478.80,-155.68,-1.827,-0.355,-4.863,-4.27,140.48,7.67,-4.348,-1.072,-5.841,-13.81,151.17,-2.91
20190930-1247-FRANKFURT_2-01-292,Salto B,-9.964,-0.584,-6.758,12.93,-129.67,24.21,-22.350,-1.195,-19.383,21.59,646.67,-32.58,-0.347,-0.880,-5.602,6.71,130.27,6.89,-4.750,-0.456,-4.108,-14.07,87.60,-2.25
20190930-1247-FRANKFURT_2-01-293,Barani C,-13.947,1.829,-3.224,-75.72,-441.26,20.84,-1.754,1.230,-5.617,-68.08,-41.36,191.63,-0.856,-1.116,-5.227,-124.57,21.04,174.34,-3.893,-2.431,-2.741,-15.05,86.68,94.43
20190930-1247-FRANKFURT_2-01-294,Schraubensalto,-0.325,2.721,-3.204,122.42,129.86,152.12,-6.403,-0.164,-0.133,248.62,-67.23,324.24,-6.105,-3.913,-8.444,-32.12,8.86,391.20,-4.812,-3.758,-5.322,-72.92,200.35,65.09
20190930-1247-FRANKFURT_2-01-295,Salto A,1.797,-0.904,-5.381,13.61,136.86,-35.40,-1.238,-1.247,-6.275,4.90,218.03,-17.20,-1.480,-1.649,-6.231,-2.47,176.38,-17.79,-3.229,-1.053,-6.664,-10.90,183.72,-16.47
20190930-1247-FRANKFURT_2-01-313,3/4 Salto rw A,0.856,-0.223,-2.121,18.08,103.34,-19.00,-0.416,-0.793,-3.215,18.49,121.10,-14.51,-0.239,-1.137,-3.155,-1.22,146.06,-8.01,-0.825,-0.347,-4.558,-3.98,232.47,40.87
20190930-1247-FRANKFURT_2-01-314,Cody C,-5.007,-0.117,-6.584,-1.94,-4.70,-66.94,-20.874,-0.748,-10.415,48.85,524.18,11.52,-2.886,0.445,-1.684,0.19,164.44,24.53,-3.196,-0.381,-4.116,-0.67,135.55,31.46
20190930-1247-FRANKFURT_2-01-316,Salto B,-9.800,-1.144,-5.630,0.01,-116.27,30.39,-19.679,-0.513,-14.909,8.59,650.48,-11.31,0.212,-1.733,-4.794,-1.27,74.64,24.52,-3.603,-0.458,-4.625,-18.67,93.76,10.04
20190930-1247-FRANKFURT_2-01-317,Barani C,-14.007,1.559,-2.619,-48.78,-438.43,12.29,-2.601,6.178,-10.385,-8.25,14.14,168.61,-0.734,-1.795,-5.572,-150.26,36.05,159.37,-3.475,-2.530,-3.679,-37.86,80.57,108.92
20190930-1247-FRANKFURT_2-01-318,Schraubensalto,-0.312,3.066,-4.268,132.65,133.05,166.97,-5.412,0.334,-1.095,220.02,-66.28,286.13,-8.529,-3.184,-7.741,59.84,-5.08,428.71,-5.480,-2.932,-5.252,-48.08,219.39,65.40
20190930-1247-FRANKFURT_2-01-319,Salto A,1.428,0.522,-4.462,22.78,157.10,-34.21,-0.841,-1.406,-6.491,15.59,216.29,-12.35,-2.007,-0.568,-6.045,-1.72,158.92,-7.37,-3.622,-0.165,-5.443,19.85,188.09,20.10
20190930-1247-FRANKFURT_2-01-335,3/4 Salto rw A,0.186,-0.096,-1.718,16.28,107.11,-13.15,-1.216,-0.691,-2.890,17.23,139.86,-6.59,-0.518,-0.571,-3.374,8.46,154.22,-12.49,0.111,-1.026,-5.629,-16.84,229.91,6.97
20190930-1247-FRANKFURT_2-01-336,Cody C,-4.411,-0.906,-15.759,-11.22,186.85,-29.45,-15.281,-0.974,12.258,51.27,382.62,-117.89,-1.075,-0.738,-6.395,-12.09,172.84,-1.15,-4.268,-0.640,-6.470,-4.01,117.30,14.76
20190930-1247-FRANKFURT_2-01-338,Salto B,-9.777,-0.397,-6.358,0.29,-101.09,-0.54,-19.191,-1.324,-15.918,4.43,562.56,-15.68,0.453,-1.438,-4.362,-16.54,130.00,5.56,-4.383,-0.491,-3.966,-0.33,102.67,38.85
20190930-1247-FRANKFURT_2-01-339,Barani C,-17.148,3.443,-5.243,-90.74,-416.23,1.28,-3.188,4.706,-11.928,-20.02,52.57,196.42,-0.694,-1.465,-6.245,-134.66,38.11,166.02,-3.611,-2.422,-4.791,-33.53,96.45,113.41
20190930-1247-FRANKFURT_2-01-340,Schraubensalto,1.561,1.100,-5.281,73.44,92.18,101.71,-5.246,0.420,-0.814,234.46,-40.04,287.97,-6.604,-3.477,-9.325,-44.47,-52.86,415.83,-5.049,-3.470,-5.967,-64.42,210.23,90.47
20190930-1247-FRANKFURT_2-01-341,Salto A,2.812,-1.501,-1.664,6.33,150.00,-83.15,-0.522,-1.045,-5.864,4.52,218.85,-6.32,-1.021,-1.109,-6.422,-3.53,141.37,1.09,-5.197,-0.335,-6.389,-7.15,197.23,-16.46
20190930-1247-FRANKFURT_2-01-342,Rudi,-5.698,1.859,-6.245,-60.07,-247.73,217.75,-12.192,-1.087,-5.786,217.40,61.65,588.25,-11.817,-6.039,-5.038,221.03,-60.37,567.74,-7.650,-1.998,-4.753,-23.23,277.32,129.27
20190930-1247-FRANKFURT_2-01-343,Salto C,0.421,-0.044,-7.094,5.28,63.95,3.55,-9.114,-1.146,-5.543,4.35,326.55,-8.17,-4.765,-0.971,-5.397,4.27,214.71,-17.75,-4.927,-0.548,-3.406,-6.98,190.67,4.22
20190930-1247-FRANKFURT_2-01-344,Fliffis C,-38.419,-0.308,-9.434,-17.87,-692.46,-70.64,-58.367,4.502,-24.742,-26.55,-741.38,63.24,-15.581,11.564,-15.014,38.44,-171.76,261.79,-6.524,-4.983,-9.940,-67.46,203.44,198.79
20191001-1148-FRANKFURT_1-01-51,Fliffis aus C,-41.494,-4.521,-5.939,69.92,-667.46,-4.70,-50.541,1.403,-23.170,32.11,-748.35,121.15,-11.579,-7.269,-13.136,-55.37,96.90,483.72,-8.954,-2.546,-9.465,-16.96,340.56,36.27
20191001-1148-FRANKFURT_1-01-52,40<,-8.928,-0.239,-9.638,10.50,-294.15,-1.81,-6.226,-0.696,-21.414,-4.83,585.04,-51.00,-3.142,-1.035,-2.293,-8.56,141.27,-7.70,-2.895,0.035,-3.425,1.88,189.20,-3.35
20191001-1148-FRANKFURT_1-01-53,41/,-5.911,0.106,-4.831,-36.96,-89.00,86.98,-0.872,0.965,-8.980,-160.46,-84.14,234.41,-3.877,-4.393,-6.329,-26.07,127.15,232.74,-7.316,-1.688,-5.507,-32.54,296.82,4.47
20191001-1148-FRANKFURT_1-01-54,40/,2.047,0.928,-5.592,-20.66,178.74,-2.19,-1.525,-1.474,-7.107,10.18,241.54,20.36,-3.818,-1.327,-6.915,3.73,136.76,-9.87,-3.554,-0.732,-2.429,6.10,212.15,26.13
20191001-1148-FRANKFURT_1-01-55,43/,-15.857,7.437,-3.138,98.78,-156.51,567.38,-12.681,-6.919,2.743,319.99,-124.38,555.48,-13.631,-8.932,-2.759,175.23,252.67,451.18,-9.459,-0.903,-3.677,1.59,287.23,75.48
20191001-1148-FRANKFURT_1-01-72,Fliffis aus C,-39.586,-2.278,-3.198,53.08,-694.99,24.38,-53.242,3.061,-21.251,6.46,-788.93,67.22,-15.040,-0.729,-12.777,25.71,4.11,452.93,-6.391,-1.953,-7.905,-22.04,387.12,32.32
20191001-1148-FRANKFURT_1-01-73,40<,-8.311,-1.297,-13.819,50.01,-230.00,-5.23,-9.891,-2.914,-18.577,11.90,555.27,-88.87,-2.481,-0.481,-2.625,-12.84,139.08,14.83,-2.360,0.313,-2.357,34.61,167.79,-25.18
20191001-1148-FRANKFURT_1-01-74,41/,-6.657,0.399,-4.375,-33.31,-104.56,107.86,-3.105,0.826,-10.661,-143.92,-107.16,278.05,-3.179,-3.935,-6.912,-65.67,146.18,207.40,-7.081,-1.578,-2.380,-22.44,233.39,-9.69
20191001-1148-FRANKFURT_1-01-75,40/,2.432,-0.758,-5.760,-21.86,183.29,-15.92,-1.281,-0.330,-6.358,-8.50,215.27,13.85,-1.869,-1.134,-5.908,17.55,155.30,-1.20,-6.829,-0.745,-5.094,-9.70,191.12,5.29
20191001-1148-FRANKFURT_1-01-76,43/,-15.454,8.427,-6.831,22.66,-112.09,597.43,-15.097,-1.549,4.579,322.00,-78.54,612.54,-11.079,-7.737,-4.521,127.57,203.27,459.18,-8.369,1.934,-1.214,2.45,250.19,31.01
20191001-1148-FRANKFURT_1-01-92,Fliffis aus C,-42.241,-6.588,-6.440,94.75,-649.35,-32.66,-49.110,-1.556,-27.071,68.43,-777.97,63.92,-9.772,-8.307,-10.682,-69.50,66.02,496.86,-7.992,-1.777,-9.080,-20.68,282.92,47.42
20191001-1148-FRANKFURT_1-01-93,40<,-8.588,-0.242,-10.533,-8.22,-317.16,22.61,-6.816,-2.434,-16.004,-43.93,642.58,-48.91,-5.868,-2.037,0.424,-23.81,194.38,79.20,-3.846,-0.569,-1.811,16.60,200.94,18.72
20191001-1148-FRANKFURT_1-01-94,41/,-5.562,0.684,-6.093,-60.79,-65.52,110.61,-2.124,-0.831,-11.353,-166.05,-56.02,283.00,-5.360,-3.572,-7.459,-100.55,174.08,123.84,-4.525,-1.015,-2.444,28.44,229.09,37.38
20191001-1148-FRANKFURT_1-01-95,40/,0.993,-1.269,-5.482,-33.37,169.46,-10.28,0.503,-1.617,-7.403,-14.73,234.70,-0.90,-1.732,-1.372,-5.140,0.50,125.27,-7.76,-4.440,-1.519,-5.775,-32.00,207.15,-14.98
20191001-1148-FRANKFURT_1-01-96,43/,-13.384,7.513,-5.113,70.91,-146.84,495.83,-15.502,-5.979,7.372,411.65,-62.13,691.48,-8.473,-6.197,-3.452,202.90,192.03,397.13,-6.750,-1.234,-6.720,10.00,295.82,77.81
20191001-1148-FRANKFURT_1-01-110,40/,2.152,-0.653,-5.313,-48.45,179.37,-23.06,-0.255,-0.502,-6.000,-6.15,219.09,23.33,-1.858,-0.632,-4.244,3.09,157.05,0.53,-3.055,-0.520,-5.025,-30.77,151.62,-6.08
20191001-1148-FRANKFURT_1-01-111,43/,-6.615,2.041,-6.927,-60.39,-167.83,232.29,-5.695,-1.492,-7.815,-41.58,94.12,353.16,-2.483,-1.809,-3.518,14.92,108.85,14.34,-4.520,0.108,-6.182,-22.10,311.24,-11.21
20191001-1148-FRANKFURT_1-01-120,40/,1.626,-0.079,-9.091,-5.65,139.34,-4.28,0.286,-0.145,-6.702,-4.73,275.15,18.68,-1.694,-0.698,-5.440,17.85,141.93,-8.33,-3.476,-0.480,-5.665,1.96,174.49,-5.39
20191001-1148-FRANKFURT_1-01-121,43/,-14.551,7.759,-5.207,38.86,-61.04,608.48,-11.094,-0.965,5.822,403.94,-1.59,577.96,-11.715,-4.163,-4.586,184.49,89.78,471.77,-10.153,-4.156,-6.910,14.66,340.32,47.64
20191001-1148-FRANKFURT_1-01-123,41°,-11.938,-1.101,-6.469,21.36,-423.16,102.01,-6.257,3.192,-9.719,-38.51,-78.42,294.54,-3.145,-4.606,-4.196,2.24,136.31,235.57,-5.246,-0.942,-2.518,-23.34,241.71,-23.62
20191001-1148-FRANKFURT_1-01-124,40°,-8.890,-0.738,-8.746,-20.47,-201.90,31.84,-17.699,0.506,-13.910,21.98,625.48,-34.89,-2.125,-0.553,-4.077,12.22,86.87,-19.10,-1.769,-1.486,-1.811,13.54,187.15,7.05
20191001-1148-FRANKFURT_1-01-125,3/4 Salto vw A,-1.150,-1.511,-2.887,14.39,41.50,8.33,-0.952,-0.402,0.470,8.10,-168.10,4.21,-5.167,-0.509,-3.070,2.90,-313.58,9.55,-4.161,-0.222,-5.222,6.92,-293.19,30.75
20191001-1148-FRANKFURT_1-01-126,Baby- Fliffis C,-20.398,-2.278,-6.074,12.47,-501.49,-68.21,-4.152,1.519,-11.492,-71.17,-211.84,65.53,-7.189,-7.319,-5.781,40.83,44.13,435.81,-3.319,-0.462,-5.318,13.71,231.93,33.46
20191001-1148-FRANKFURT_1-01-139,40/,0.962,-1.001,-4.650,-17.93,173.65,12.57,-0.926,-1.186,-6.022,15.59,225.50,32.58,-2.054,-0.349,-5.024,1.92,153.01,-7.35,-5.197,-1.030,-3.758,6.86,188.54,-14.94
20191001-1148-FRANKFURT_1-01-140,43/,-14.822,7.677,-5.549,42.51,-150.22,578.85,-13.927,-0.344,2.445,236.02,-60.86,606.38,-10.093,-6.751,-8.378,-33.89,133.66,503.68,-6.662,-2.026,-1.775,-4.87,271.25,35.50
20191001-1148-FRANKFURT_1-01-142,41°,-14.069,0.169,-6.635,26.02,-442.94,90.11,-6.061,0.662,-8.210,-29.52,-64.89,343.93,-3.517,-4.246,-4.360,-18.16,143.82,133.35,-5.966,-0.520,-0.078,-4.70,238.00,34.06
20191001-1148-FRANKFURT_1-01-143,40°,-11.279,-0.100,-6.650,-4.40,-286.86,57.66,-9.353,0.235,-10.922,-1.92,673.61,-17.02,-0.957,-0.874,-2.101,2.31,67.79,-9.19,-3.431,-0.517,-1.149,-10.18,171.16,-12.61
20191001-1148-FRANKFURT_1-01-144,3/4 Salto vw A,-0.890,-0.014,-2.126,8.99,56.37,19.47,-0.934,-0.591,0.150,12.54,-168.24,4.36,-1.889,-0.894,-1.528,15.72,-269.46,28.74,-5.833,-0.851,-4.343,14.34,-309.08,18.94
20191001-1148-FRANKFURT_1-01-145,Baby- Fliffis C,-23.699,-1.301,-11.905,30.33,-583.77,-7.53,-10.744,7.868,-16.181,-34.78,-182.11,339.17,-5.638,-5.691,-7.982,-39.42,138.84,305.95,-7.240,-1.500,-6.933,-23.29,311.28,19.10
20191001-1148-FRANKFURT_1-01-160,40/,2.493,0.209,-10.853,-8.97,156.74,-13.39,-1.393,-0.641,-5.468,-15.91,267.79,-2.37,-1.774,-1.286,-4.978,-4.72,160.40,-12.83,-3.389,-0.791,-3.942,-19.02,137.15,6.15
20191001-1148-FRANKFURT_1-01-161,43/,-17.739,3.207,-1.382,115.99,-166.53,494.59,-16.980,-4.427,10.363,457.91,-134.69,676.88,-4.505,-2.458,-4.481,114.08,227.02,318.20,-6.699,0.540,-5.103,27.75,256.87,15.39
20191001-1148-FRANKFURT_1-01-163,41°,-9.245,1.220,-6.247,-58.95,-321.57,121.80,-4.780,-2.774,-4.330,-51.63,26.85,367.38,-2.564,-3.118,-5.356,-26.72,130.96,118.56,-5.517,-0.832,-0.618,-18.60,229.89,21.06
20191001-1148-FRANKFURT_1-01-164,40°,-10.719,0.884,-7.252,-5.61,-249.90,30.41,-14.095,-1.005,-8.851,12.95,573.06,-39.81,-1.069,-1.188,-1.629,7.42,38.96,-11.98,-3.117,-0.842,-0.133,-11.75,172.37,14.75
20191001-1148-FRANKFURT_1-01-165,3/4 Salto vw A,-0.345,-0.070,-2.945,18.45,48.72,24.21,1.062,-0.272,-0.980,9.71,-162.25,14.34,-1.141,-0.666,-1.143,3.09,-247.43,31.14,-7.369,-2.200,-7.566,3.10,-337.05,21.38
20191001-1148-FRANKFURT_1-01-166,Baby- Fliffis C,-21.508,-0.491,-10.696,-3.48,-547.30,33.76,-11.508,3.601,-16.278,-60.36,-58.49,297.72,-6.043,-8.573,-6.621,-8.25,151.46,306.96,-9.226,0.028,-7.680,-17.16,333.86,-20.79
20191001-1148-FRANKFURT_1-01-181,Fliffis aus B,-33.060,-4.647,-12.179,99.07,-746.43,6.90,-35.356,-10.839,-7.575,198.57,-647.91,-59.98,-12.796,8.298,-8.065,79.17,-123.82,462.46,-9.845,0.229,-7.813,12.13,504.01,8.15
20191001-1148-FRANKFURT_1-01-182,40<,-4.770,0.103,-11.395,7.01,-239.08,17.97,-3.557,-0.425,-18.829,32.15,623.90,-28.26,-5.108,-1.033,-1.595,-28.87,202.64,24.28,-4.478,-1.010,-0.208,10.23,207.98,21.74
20191001-1148-FRANKFURT_1-01-183,Fliffis aus C,-40.746,-3.203,-2.951,61.65,-681.59,19.56,-54.612,2.262,-21.541,58.63,-780.71,54.76,-12.467,4.819,-19.398,-12.48,-53.60,480.25,-12.380,-2.017,-9.283,-57.03,246.00,83.54
20191001-1148-FRANKFURT_1-01-184,40/,4.728,-0.167,-7.103,-13.52,192.49,4.39,-1.633,-0.899,-8.578,-12.85,220.32,25.30,-3.958,-1.468,-8.870,14.37,187.66,-18.28,-6.089,0.032,-1.079,0.12,236.54,-9.01
20191001-1148-FRANKFURT_1-01-196,Fliffis aus B,-33.523,-3.461,-9.882,67.98,-753.05,-33.62,-37.061,-6.921,-9.500,148.25,-660.98,-93.86,-18.659,20.939,-1.466,317.86,-321.80,541.67,-11.846,-0.807,-8.867,58.26,607.11,-52.54
20191001-1148-FRANKFURT_1-01-197,40<,-8.780,-1.497,-8.018,-17.16,-373.50,27.53,-15.429,1.133,-12.480,16.07,545.22,5.06,-6.802,-0.501,-0.985,9.77,223.70,-32.11,-3.303,-0.355,-1.405,-4.05,187.54,27.04
20191001-1148-FRANKFURT_1-01-198,Fliffis aus C,-42.753,-6.087,-10.694,73.09,-700.58,-35.48,-52.266,-1.122,-26.397,107.20,-775.42,83.89,-23.725,-8.676,-7.599,181.80,213.94,539.24,-8.227,-0.132,-7.853,19.30,636.21,-17.37
20191001-1148-FRANKFURT_1-01-199,40/,-1.255,1.296,-5.952,4.85,179.05,8.01,-3.455,-1.541,-7.613,-15.68,203.57,5.22,-3.675,-0.840,-5.236,7.89,154.67,2.80,-5.888,-0.199,-6.877,-20.42,304.28,-18.92
20191001-1148-FRANKFURT_1-01-218,Fliffis aus B,-36.321,-1.379,-9.925,7.63,-750.26,-5.41,-37.686,-5.836,-4.580,117.82,-662.88,-39.09,-18.653,17.586,-4.663,250.42,-311.35,543.02,-12.822,2.552,-7.003,57.71,615.71,-5.16
20191001-1148-FRANKFURT_1-01-219,40<,-2.090,-1.312,-13.197,-4.39,-293.76,29.12,-9.861,-0.806,-15.500,7.78,574.04,-13.88,-7.008,-0.921,0.208,-11.16,260.68,-17.54,-4.831,-1.522,-1.914,-10.12,184.11,3.24
20191001-1148-FRANKFURT_1-01-220,Fliffis aus C,-42.079,-5.687,-4.216,57.80,-668.57,-39.87,-53.401,-1.122,-23.278,101.03,-788.29,-29.44,-15.860,5.377,-18.877,47.63,-57.14,538.05,-9.422,-0.232,-10.970,-12.31,276.86,52.19
20191001-1148-FRANKFURT_1-01-221,40/,3.351,0.139,-6.260,9.31,131.49,-21.04,-1.685,-1.211,-8.341,0.81,225.80,28.27,-3.104,-1.153,-5.709,12.52,108.87,-3.99,-8.239,-0.534,-5.885,-24.08,295.44,-30.35
20191001-1148-FRANKFURT_1-01-244,Fliffis aus B,-34.832,-5.133,-14.502,119.08,-762.37,-10.63,-35.680,-15.349,-12.257,236.47,-650.04,-159.87,-13.252,13.967,-5.598,245.86,-261.58,510.34,-9.449,1.496,-9.288,12.82,533.30,-65.46
20191001-1148-FRANKFURT_1-01-245,40<,-3.834,0.117,-10.698,-4.05,-241.89,-6.00,-3.497,-1.002,-17.535,6.65,567.62,12.92,-5.127,0.194,-0.878,-3.82,223.48,14.80,-2.602,-0.399,-4.347,-21.58,128.99,-3.85
20191001-1148-FRANKFURT_1-01-246,Fliffis aus C,-40.076,-4.599,-7.652,52.93,-680.15,-10.34,-49.617,0.006,-21.294,79.33,-756.90,3.76,-26.690,2.219,-10.373,198.12,-25.40,516.96,-9.453,-0.868,-8.034,3.20,476.05,100.95
20191001-1148-FRANKFURT_1-01-247,40/,2.255,-0.271,-6.150,-0.32,224.48,-22.53,-2.513,-0.559,-7.348,12.98,229.51,36.42,-2.621,-1.064,-5.688,11.37,163.85,-17.68,-7.094,-1.428,-3.065,-29.89,209.34,2.56
20191001-1202-FRANKFURT_2-01-25,3/4 Salto rw A,-2.558,-2.375,-2.904,-28.41,-130.80,0.14,0.996,-0.084,-3.451,4.58,-177.50,-23.79,1.176,0.032,-4.543,-1.06,-180.25,-8.43,2.505,-0.952,-3.993,-14.07,-216.69,0.90
20191001-1202-FRANKFURT_2-01-26,Cody C,10.623,-2.013,-10.094,51.11,-258.63,49.87,19.857,-2.895,-14.827,-73.54,-627.33,-33.17,2.594,-0.911,-3.179,-8.15,-160.72,2.73,6.802,-1.471,-5.801,-41.48,-147.70,-23.48
20191001-1202-FRANKFURT_2-01-28,Salto B,14.999,-1.096,-3.916,-16.46,125.12,21.59,14.074,-0.224,-23.571,-44.62,-658.19,-38.30,5.471,-1.015,-0.636,-15.57,-254.32,-6.05,4.927,-1.177,-4.272,-28.36,-75.67,-17.99
20191001-1202-FRANKFURT_2-01-29,Barani A,6.211,-0.857,-4.284,61.42,73.97,93.96,1.517,-3.487,-11.607,169.53,140.19,249.63,4.960,3.420,-9.244,79.80,-109.03,199.48,10.605,0.623,-6.168,58.12,-256.70,63.46
20191001-1202-FRANKFURT_2-01-30,Salto A,-4.456,1.024,-11.072,-44.41,-81.92,3.82,4.487,-1.727,-7.975,-16.25,-257.74,9.10,4.490,-1.303,-7.365,-55.86,-239.28,11.85,7.667,-1.643,-3.906,-43.05,-167.40,-7.34
20191001-1202-FRANKFURT_2-01-42,3/4 Salto rw A,-3.202,-1.229,-4.487,-21.74,-120.34,-30.18,0.667,-0.525,-4.608,-9.96,-188.07,-19.31,0.900,0.084,-4.930,19.01,-175.52,3.62,2.165,-0.666,-3.778,-9.66,-194.75,-52.53
20191001-1202-FRANKFURT_2-01-43,Cody C,13.451,-1.474,-9.785,6.05,-265.05,19.45,25.079,-2.901,-20.272,-58.42,-591.25,-51.14,1.908,0.504,-6.413,-22.43,-166.27,-17.11,7.063,-1.633,-4.039,-3.37,-127.66,-19.59
20191001-1202-FRANKFURT_2-01-45,Salto B,12.996,-0.465,-6.715,5.33,132.34,7.56,15.933,-1.133,-16.230,-50.76,-630.78,-21.14,10.596,-1.128,-4.358,-31.46,-353.55,-7.13,4.039,-0.789,-5.146,-15.51,-33.27,-3.33
20191001-1202-FRANKFURT_2-01-46,Barani A,2.301,-1.387,-6.334,63.29,82.65,71.85,0.693,-3.541,-10.681,195.49,151.19,164.34,5.041,2.894,-9.159,42.04,-36.83,268.25,10.640,0.437,-5.793,18.81,-276.88,31.72
20191001-1202-FRANKFURT_2-01-47,Salto A,-4.619,-0.156,-4.839,-43.55,-95.91,-7.09,2.951,-0.525,-7.046,-18.26,-228.55,-19.31,4.102,-0.771,-6.827,-33.01,-179.13,17.62,8.117,-2.258,-5.738,-34.04,-222.95,0.60
20191001-1202-FRANKFURT_2-01-62,3/4 Salto rw A,-3.032,-0.877,-4.023,-39.04,-73.99,12.83,1.105,-0.679,-3.576,-4.09,-181.58,-5.02,1.293,-0.175,-4.525,-0.38,-187.58,-10.87,3.130,-0.426,-5.384,-13.37,-236.18,-14.72
20191001-1202-FRANKFURT_2-01-63,Cody C,12.949,-0.778,-10.493,-16.49,-225.34,-13.81,22.938,-0.106,-17.333,-52.57,-609.66,-67.78,1.591,-1.072,-5.788,1.42,-138.18,-46.77,7.842,-0.661,-3.372,-19.83,-138.86,-22.44
20191001-1202-FRANKFURT_2-01-65,Salto B,13.589,-0.758,-5.026,-22.94,138.27,39.88,10.241,-1.176,-17.296,-52.73,-629.49,-29.82,4.563,-1.967,-1.292,-42.21,-217.28,8.58,5.888,-0.830,-4.444,-15.10,-116.88,-16.69
20191001-1202-FRANKFURT_2-01-66,Barani A,4.446,0.292,-3.076,69.76,110.68,77.34,0.649,-2.470,-10.585,158.44,107.01,222.21,4.719,1.209,-9.086,77.85,-134.87,228.52,8.841,-0.240,-4.338,3.07,-201.86,1.89
20191001-1202-FRANKFURT_2-01-67,Salto A,-6.715,-0.811,-6.125,-35.30,-111.25,-8.57,3.416,-0.072,-6.536,-8.61,-223.29,-18.16,4.790,-0.280,-6.531,-17.75,-180.85,15.95,7.989,-1.973,-5.645,-47.58,-235.68,-45.55
20191001-1202-FRANKFURT_2-01-78,Barani A,4.756,-0.528,-4.518,69.48,147.35,98.26,2.981,-0.533,-11.001,138.82,115.61,272.94,6.561,2.189,-9.944,38.26,-201.97,242.71,8.424,-1.026,-3.277,-30.34,-214.83,19.72
20191001-1202-FRANKFURT_2-01-79,Salto A,-5.713,-0.994,-8.038,-33.12,-150.59,-8.30,2.516,0.602,-6.271,-6.80,-214.61,-22.63,3.901,0.248,-7.216,-5.31,-167.19,15.83,7.821,-1.432,-5.049,-7.14,-233.96,-28.89
20191001-1202-FRANKFURT_2-01-81,Salto C,9.951,0.045,-10.746,-38.64,30.72,8.67,17.212,-2.324,-16.672,-83.98,-523.52,-27.21,0.956,-0.396,-2.882,8.32,-121.10,1.95,4.501,-1.562,-2.936,-27.64,-110.71,3.14
20191001-1202-FRANKFURT_2-01-82,3/4 Salto vw A,1.050,-1.709,-3.730,27.38,42.08,5.44,0.380,-0.585,-0.913,20.94,106.46,9.50,2.581,-1.160,0.508,28.14,265.58,-13.42,6.093,-0.328,-4.018,10.72,312.69,23.38
20191001-1202-FRANKFURT_2-01-83,Baby- Fliffis C,29.249,-5.866,-10.297,79.54,560.06,26.99,5.336,-9.760,-13.952,22.24,59.09,213.94,3.936,2.791,-9.017,102.24,-34.34,248.34,6.913,2.402,-4.031,-6.98,-167.27,95.04
20191001-1202-FRANKFURT_2-01-92,Barani A,5.750,-1.619,-4.014,66.52,98.54,90.56,2.059,-1.481,-10.567,154.29,137.00,226.64,5.133,2.483,-8.753,39.54,-146.02,217.98,9.564,0.690,-4.607,-5.28,-249.37,12.10
20191001-1202-FRANKFURT_2-01-93,Salto A,-4.196,-2.384,-6.602,-38.23,-136.23,-8.98,3.754,-1.024,-7.149,1.20,-254.41,-9.93,3.811,-0.551,-7.308,-19.87,-252.11,5.54,7.120,-1.063,-5.849,-7.04,-178.58,-32.42
20191001-1202-FRANKFURT_2-01-95,Salto C,9.542,0.307,-12.788,-40.41,-15.38,41.95,20.553,-0.450,-11.072,-66.00,-457.58,-44.57,0.847,-0.907,-4.026,-31.53,-116.82,16.68,2.877,-0.939,-4.238,-16.52,-94.64,-20.92
20191001-1202-FRANKFURT_2-01-96,3/4 Salto vw A,1.436,-0.068,-3.422,25.45,47.82,21.59,-0.598,-0.329,-0.358,17.16,89.71,-2.28,5.842,-1.567,-2.386,42.20,326.94,-0.18,6.428,-0.676,-4.929,22.79,306.76,29.19
20191001-1202-FRANKFURT_2-01-97,Baby- Fliffis C,33.172,-4.636,-10.364,41.33,549.99,81.15,3.146,-4.903,-12.002,122.12,18.92,223.50,3.940,0.987,-8.713,95.06,-5.35,263.15,6.505,-0.065,-4.976,4.30,-199.51,122.68
20191001-1202-FRANKFURT_2-01-109,Barani A,6.100,-2.131,-3.210,62.99,118.59,106.78,1.440,-1.282,-8.860,142.40,111.65,258.64,5.150,1.569,-9.323,91.59,-102.82,231.14,8.698,1.748,-6.101,16.59,-244.16,47.60
20191001-1202-FRANKFURT_2-01-110,Salto A,-2.965,-2.368,-5.442,-6.90,-95.93,-16.37,3.526,-0.658,-7.499,21.84,-259.40,-13.58,4.645,-0.445,-6.659,-26.72,-206.68,-17.82,7.479,-0.903,-6.923,12.63,-202.75,3.78
20191001-1202-FRANKFURT_2-01-112,Salto C,9.669,0.259,-11.532,-48.22,28.98,4.94,15.400,-0.815,-13.508,-12.04,-549.05,-47.01,1.555,-1.810,-2.350,-9.74,-161.43,-25.73,4.453,-1.091,-3.021,-1.95,-75.60,-8.14
20191001-1202-FRANKFURT_2-01-113,3/4 Salto vw A,1.878,-0.895,-3.219,22.30,20.01,24.49,-0.049,-0.650,-0.223,28.81,90.20,5.31,6.326,-0.494,-0.038,37.07,343.85,-26.91,6.580,-0.625,-4.041,8.49,313.41,25.09
20191001-1202-FRANKFURT_2-01-114,Baby- Fliffis C,24.930,-4.114,-13.486,48.18,559.36,5.65,5.684,-6.781,-11.787,22.66,126.40,179.58,7.727,1.211,-9.911,81.57,-96.76,383.39,6.733,-0.112,-3.013,-118.66,-176.72,93.19
20191001-1202-FRANKFURT_2-01-130,Salto A,-3.326,-1.070,-6.225,-27.75,-164.89,-22.24,3.781,0.608,-6.889,20.47,-237.53,-23.44,4.543,0.013,-6.181,-8.14,-176.99,0.14,8.095,-1.858,-5.727,-11.37,-244.16,-14.83
20191001-1202-FRANKFURT_2-01-131,Salto A,-0.402,0.185,-7.888,-10.19,-42.53,-22.59,4.685,-0.500,-6.034,4.91,-261.30,-27.24,7.188,0.025,-6.290,-9.03,-248.27,-7.30,9.544,-2.038,-3.407,-3.78,-240.55,-15.46
20191001-1202-FRANKFURT_2-01-132,Salto A,-4.019,-1.014,-5.457,3.65,-50.63,-4.13,4.425,-0.161,-5.916,-9.42,-234.70,-24.31,4.709,-0.057,-5.780,4.14,-203.35,-20.52,5.311,-0.806,-4.602,17.98,-183.42,6.60
20191001-1202-FRANKFURT_2-01-142,Salto A,-3.255,0.254,-6.010,-35.37,-138.31,-10.63,3.367,0.519,-6.366,-1.09,-239.03,-7.94,4.623,0.403,-7.143,-18.51,-176.80,3.40,9.998,-1.418,-5.467,-17.74,-256.77,-36.05
20191001-1202-FRANKFURT_2-01-143,Salto A,-4.441,-2.099,-5.145,-10.08,-76.32,-9.98,3.462,0.571,-7.391,-0.92,-257.21,-24.30,5.025,-0.890,-6.918,5.30,-202.21,24.67,9.056,-1.846,-6.264,-29.45,-216.99,-6.69
20191001-1202-FRANKFURT_2-01-144,Salto A,-4.572,-2.700,-6.938,-9.54,-14.47,-1.50,4.585,-0.473,-7.153,-1.84,-258.38,8.44,4.754,-1.286,-6.441,-18.09,-192.44,12.64,6.353,-1.258,-5.498,-22.27,-209.18,7.92
20191001-1202-FRANKFURT_2-01-155,Salto A,-4.064,-0.903,-6.996,-32.30,-185.29,-29.67,3.718,-0.873,-7.134,-8.97,-252.41,-19.29,3.387,-0.043,-7.431,-26.13,-249.70,4.64,7.219,-1.851,-6.103,-27.55,-192.63,-0.33
20191001-1202-FRANKFURT_2-01-156,Salto A,-4.934,-3.105,0.147,-13.76,-84.80,-21.25,3.128,-0.143,-6.390,-8.27,-206.41,-10.04,5.067,-0.499,-7.170,2.20,-170.84,-4.90,9.517,-1.057,-6.869,-20.87,-288.10,1.12
20191001-1202-FRANKFURT_2-01-157,Salto A,-3.582,-2.050,-2.238,-6.67,-120.93,-17.67,4.322,0.135,-6.815,11.17,-249.72,-2.72,4.226,-0.484,-6.731,-30.92,-197.27,-7.45,7.534,-2.132,-5.693,-36.87,-228.71,-5.70
20191001-1202-FRANKFURT_2-01-172,Salto A,-3.392,-0.181,-7.893,-52.60,-131.61,-19.89,3.614,1.149,-7.118,7.78,-283.49,-16.14,3.610,-0.306,-7.266,-15.08,-149.41,32.09,8.455,-2.346,-6.109,-27.85,-240.30,-11.24
20191001-1202-FRANKFURT_2-01-173,Salto A,-4.556,-2.525,-4.630,-13.91,-67.29,-9.65,2.416,-0.339,-7.651,-4.66,-258.82,-5.10,4.398,-0.367,-6.517,-7.83,-149.00,0.76,8.457,-1.721,-6.751,-27.01,-269.68,-10.60
20191001-1202-FRANKFURT_2-01-174,Salto A,-2.682,-1.271,-3.509,1.03,3.75,-32.51,5.766,0.018,-7.927,-1.42,-315.68,-36.44,5.558,-0.623,-6.568,-7.10,-196.93,11.01,7.050,-1.723,-6.154,-11.32,-220.73,-7.55
20191001-1202-FRANKFURT_2-01-184,Salto A,-5.239,-1.598,-7.112,-26.88,-141.06,-8.94,2.345,-0.580,-7.175,2.41,-250.01,3.76,3.389,0.034,-7.692,-12.54,-122.65,14.44,10.414,-1.607,-6.235,-12.73,-273.13,-8.06
20191001-1202-FRANKFURT_2-01-185,Salto A,-3.575,-2.263,-4.793,-25.28,-112.96,-12.65,3.443,-0.801,-7.431,-12.09,-260.60,-7.61,4.149,-0.840,-7.271,-24.22,-219.57,10.27,8.612,-1.522,-7.439,-20.80,-228.13,-45.59
20191001-1202-FRANKFURT_2-01-186,Salto A,-5.564,-0.934,-8.193,-5.14,-48.68,-28.02,4.674,0.193,-7.857,-6.48,-235.85,-28.35,6.186,0.428,-8.027,46.40,-270.27,-21.54,8.882,-0.631,-4.315,10.44,-240.57,-1.50
20191001-1202-FRANKFURT_2-01-197,Salto A,-4.685,-0.564,-5.856,-17.59,-104.66,2.44,2.918,-0.107,-7.239,-35.24,-255.60,-23.77,5.118,-0.512,-6.170,16.41,-159.53,38.25,8.274,-2.040,-6.635,-15.44,-234.30,-1.76
20191001-1202-FRANKFURT_2-01-198,Salto A,-1.488,-0.141,-0.281,-17.05,-93.88,-7.70,2.101,-0.483,-5.701,-0.23,-226.43,11.93,4.400,-0.469,-6.829,-12.22,-189.10,-3.94,8.438,-1.094,-4.894,-45.13,-261.65,-3.80
20191001-1202-FRANKFURT_2-01-199,Salto A,-6.052,-0.399,-4.379,-4.67,-83.05,-23.82,5.031,-0.339,-7.702,6.94,-275.38,-11.24,4.131,-0.560,-7.180,-7.79,-180.01,11.06,8.327,-0.659,-5.068,-35.23,-225.41,-11.68
20191003-1152-FRANKFURT_1-01-14,3/4 Salto rw A,0.374,-1.024,-3.265,-18.21,60.04,1.32,-3.566,-1.348,-4.697,-7.21,224.69,0.28,-1.346,-0.784,-3.820,-19.74,240.69,-21.09,-2.497,0.372,-3.755,-8.54,172.42,58.28
20191003-1152-FRANKFURT_1-01-15,Cody C,-6.674,-0.133,-12.968,15.00,147.05,10.96,-14.206,-1.715,-3.742,-39.49,502.08,-9.42,-2.707,-0.487,-6.756,-8.96,201.00,11.96,-5.532,-2.132,-7.030,-24.90,140.46,-4.14
20191003-1152-FRANKFURT_1-01-17,Salto B,-7.872,-1.459,-7.738,-9.67,-160.19,-8.54,-5.374,-2.379,-20.858,-34.26,594.25,1.01,-8.139,-1.130,3.735,-22.32,291.79,7.17,-1.969,-0.181,-6.553,9.40,107.64,19.14
20191003-1152-FRANKFURT_1-01-27,3/4 Salto rw A,0.219,-0.890,-3.208,-17.51,60.93,5.51,-4.797,-0.180,-4.588,14.32,252.27,2.73,-1.493,-0.538,-3.098,-16.39,219.65,10.07,-1.578,-0.151,-4.512,-36.73,209.75,16.09
20191003-1152-FRANKFURT_1-01-28,Cody C,-4.896,-0.903,-15.392,-20.65,160.53,29.98,-12.466,-1.381,-6.852,-55.83,476.86,-24.06,-2.909,-1.450,-6.381,-27.97,190.78,-13.18,-6.296,-1.344,-7.481,-24.16,164.34,10.72
20191003-1152-FRANKFURT_1-01-30,Salto B,-7.779,-1.674,-5.713,1.85,-147.58,-44.76,-5.267,-2.497,-20.145,-52.58,591.30,22.08,-9.775,-1.765,5.529,-73.81,277.44,35.47,-1.871,-1.067,-4.364,3.18,74.23,14.67
20191003-1152-FRANKFURT_1-01-42,3/4 Salto rw A,-0.384,-1.060,-1.086,-11.64,82.83,10.51,-3.219,0.084,-4.574,-7.90,219.28,22.60,-1.360,0.047,-3.710,-3.63,237.94,22.99,-0.729,-0.458,-4.473,-30.28,209.53,8.39
20191003-1152-FRANKFURT_1-01-43,Cody C,-7.535,-1.361,-13.585,17.76,129.96,0.77,-14.774,-1.316,-5.005,-47.18,462.09,-15.71,-3.238,-1.129,-6.699,-16.35,201.65,-2.40,-4.573,-1.796,-7.902,-30.36,156.68,-9.58
20191003-1152-FRANKFURT_1-01-45,Salto B,-4.336,-1.932,-4.145,-15.95,-129.83,12.82,-5.317,-1.637,-19.586,-25.90,593.48,30.79,-10.539,-1.082,5.072,-33.40,291.26,-2.19,-1.390,-0.675,-5.543,26.57,131.34,2.28
20191003-1152-FRANKFURT_1-01-46,Barani A,-3.001,-2.259,-5.717,52.05,-125.55,-28.83,-2.725,-3.897,-8.022,177.74,-135.99,-140.31,-2.394,1.319,-9.646,184.39,37.80,-215.74,-4.361,1.490,-7.620,23.28,193.14,-50.49
20191003-1152-FRANKFURT_1-01-47,Salto A,-1.036,-0.812,-2.906,-19.19,85.73,-8.16,-9.502,-0.639,-7.061,4.46,380.37,10.11,-3.316,-0.716,-5.981,-6.02,200.40,-8.90,-2.558,-0.075,-7.528,-4.85,173.36,-8.44
20191003-1152-FRANKFURT_1-01-61,3/4 Salto rw A,-0.117,0.273,-1.114,-5.66,43.59,2.69,-4.265,-0.862,-3.498,-5.65,237.89,6.60,-1.353,-0.460,-4.010,-12.97,231.98,-27.39,-2.786,0.340,-3.771,-7.27,203.07,21.75
20191003-1152-FRANKFURT_1-01-62,Cody C,-7.512,-0.752,-13.083,4.68,141.60,-3.02,-15.182,-1.494,-2.824,-40.89,492.12,-8.46,-2.903,-0.606,-6.018,-10.32,174.59,12.20,-6.264,-2.192,-7.302,-16.15,169.64,10.87
20191003-1152-FRANKFURT_1-01-64,Salto B,-8.346,-2.620,-4.574,8.32,-157.55,-40.47,-9.170,-2.928,-21.588,-25.00,625.82,11.12,-5.192,-0.574,3.950,-10.69,177.96,-33.27,-3.219,-1.380,-6.663,-25.86,146.97,-13.14
20191003-1152-FRANKFURT_1-01-65,Barani A,-1.606,-1.045,-5.329,80.65,-131.26,-55.10,-1.540,-3.226,-8.543,205.54,-85.64,-188.49,-0.798,0.454,-10.719,159.25,66.02,-231.68,-5.246,0.345,-7.235,-11.22,230.07,-35.61
20191003-1152-FRANKFURT_1-01-66,Salto A,-3.298,-0.540,-7.457,-8.36,150.86,-1.19,-6.741,-0.907,-6.494,-2.51,351.23,9.61,-5.264,-0.576,-5.259,-1.54,201.95,-1.85,-3.305,-1.205,-6.809,-3.96,234.57,-36.80
20191003-1152-FRANKFURT_1-01-76,Barani A,-3.460,-3.422,-5.781,61.25,-155.07,-32.46,-1.485,-5.577,-9.176,190.00,-136.71,-145.32,-2.671,-0.492,-9.417,175.81,49.25,-206.16,-4.602,-0.020,-9.679,-2.04,199.08,-36.97
20191003-1152-FRANKFURT_1-01-77,Salto A,-1.227,-0.739,-6.144,-31.37,161.90,-27.66,-1.910,-1.319,-6.731,-19.67,250.68,9.20,-3.889,-1.056,-7.463,-20.09,194.32,-14.52,-6.063,-1.026,-7.185,-33.22,252.02,-15.39
20191003-1152-FRANKFURT_1-01-88,Barani A,-4.923,-4.699,-5.894,67.30,-128.22,-55.33,-0.576,-5.999,-10.648,208.99,-161.38,-126.56,-0.589,-1.164,-10.455,200.66,29.24,-180.62,-6.731,2.803,-7.537,29.73,184.96,-71.48
20191003-1152-FRANKFURT_1-01-89,Salto A,-1.298,-0.404,-2.753,-16.27,127.32,-13.10,-4.622,-0.747,-7.338,2.69,376.53,35.49,-2.039,-0.770,-6.793,3.10,150.63,-10.61,-5.950,-1.326,-9.147,-11.76,237.09,2.71
20191003-1152-FRANKFURT_1-01-90,Schraubensalto A,-4.316,-3.007,0.807,-181.45,172.01,-224.46,-13.116,2.450,-3.341,-95.48,-174.88,-422.43,-3.139,4.605,-11.400,185.81,50.06,-275.02,-9.303,1.300,-7.673,12.11,266.80,-41.60
20191003-1152-FRANKFURT_1-01-91,Barani C,-8.747,-3.098,-4.778,58.61,-358.76,-55.05,-4.930,-5.199,-9.409,82.99,-85.59,-252.62,-3.411,0.735,-8.503,104.34,86.89,-223.04,-5.549,0.987,-5.505,-6.83,211.05,-84.19
20191003-1152-FRANKFURT_1-01-102,Barani A,-3.563,-3.189,-6.699,59.17,-140.66,-37.35,-0.443,-5.232,-9.996,201.92,-138.02,-132.45,-1.047,-0.405,-9.858,221.95,53.25,-144.84,-4.140,2.665,-7.551,11.53,147.00,-53.24
20191003-1152-FRANKFURT_1-01-103,Salto A,0.763,-0.465,-4.617,-11.03,52.48,3.84,-6.948,-0.518,-7.497,-15.71,403.19,13.14,-2.720,-0.140,-6.573,-0.53,169.80,-6.63,-5.252,-1.318,-8.991,-20.74,202.02,-11.57
20191003-1152-FRANKFURT_1-01-104,Schraubensalto A,-3.141,-2.999,-0.735,-153.01,145.86,-261.44,-11.976,4.843,-7.871,-84.85,-137.30,-449.08,-3.017,4.499,-8.229,111.18,182.47,-289.46,-7.927,-1.357,-7.215,23.86,256.54,-7.45
20191003-1152-FRANKFURT_1-01-105,Barani C,-11.607,-3.867,-7.050,114.21,-386.92,-107.99,-3.698,-8.979,-13.199,66.40,-16.20,-186.18,-2.713,0.934,-7.073,147.94,58.36,-187.01,-4.759,1.354,-5.620,36.89,180.09,-57.25
20191003-1152-FRANKFURT_1-01-106,Salto C,-10.223,-1.166,-9.152,22.74,-101.45,-17.93,-27.679,-3.787,-20.487,-14.55,609.76,-14.33,-1.472,-0.604,-2.501,-11.89,132.39,-10.47,-2.322,-0.463,-3.532,-6.07,91.70,-1.30
20191003-1152-FRANKFURT_1-01-118,Fliffis C,-41.801,-1.464,-11.374,5.24,-777.55,11.72,-56.068,-10.712,-22.544,150.95,-744.71,-137.42,-3.763,-5.315,-15.075,94.17,-12.62,-351.03,-7.675,1.831,-12.406,45.86,169.55,-153.50
20191003-1152-FRANKFURT_1-01-129,Fliffis C,-41.796,-0.710,-10.068,-5.50,-755.91,14.39,-51.169,-16.019,-25.263,222.67,-690.75,-141.99,-1.480,-4.555,-14.424,159.52,6.25,-309.08,-7.358,3.786,-12.391,50.27,174.79,-117.33
20191003-1152-FRANKFURT_1-01-146,Fliffis C,-41.315,-0.981,-11.160,4.77,-761.71,-4.29,-55.624,-17.035,-24.747,199.18,-742.39,-135.35,-3.443,-4.963,-12.087,89.38,8.77,-272.15,-6.730,2.879,-12.005,64.94,141.25,-177.59
20191003-1152-FRANKFURT_1-01-159,Salto C,-10.076,-0.537,-8.480,6.09,-79.98,30.14,-30.566,-3.692,-15.420,-20.11,592.28,-1.98,-2.598,-0.403,-2.048,-5.90,106.12,-1.09,-3.186,-0.023,-6.333,-12.21,166.42,4.75
20191003-1152-FRANKFURT_1-01-160,Fliffis C,-44.032,-1.505,-13.143,35.32,-771.24,-23.30,-49.631,-18.610,-24.277,238.36,-690.76,-77.65,-1.291,-2.253,-14.653,161.79,4.34,-294.02,-8.402,3.661,-12.896,67.53,157.44,-171.55
20191007-1524-FRANKFURT_1-01-33,Barani A,-6.511,-0.331,-5.386,-56.79,-90.62,81.44,-0.023,0.805,-8.420,-183.01,-137.02,156.65,-1.993,-3.295,-7.754,-165.96,50.34,181.56,-4.037,-4.082,-5.723,-48.34,163.66,39.90
20191007-1524-FRANKFURT_1-01-35,Barani A,-5.960,2.065,-6.109,-99.58,-36.82,81.82,-0.941,0.143,-8.279,-181.08,-63.74,144.24,-2.891,-4.542,-6.153,-94.18,96.46,197.18,-5.013,-3.762,-6.700,-64.28,192.02,-17.67
20191007-1524-FRANKFURT_1-01-37,Barani A,-6.297,2.086,-5.374,-101.74,-31.47,43.03,0.550,-0.046,-7.631,-222.68,-71.30,141.01,-2.478,-4.927,-6.095,-67.59,149.20,186.22,-4.120,-2.527,-4.671,-22.42,165.63,-4.03
20191007-1524-FRANKFURT_1-01-39,Barani A,-5.883,0.196,-5.506,-75.33,-122.27,57.46,-1.764,-1.011,-10.378,-127.02,-126.10,205.71,-3.898,-4.156,-7.261,-102.57,119.56,242.65,-4.821,-2.849,-5.081,-16.27,145.14,98.69
20191007-1524-FRANKFURT_1-01-41,Barani A,-5.213,1.477,-6.427,-66.11,-101.48,74.59,-0.771,0.189,-7.824,-150.95,-136.43,130.47,-2.607,-2.325,-8.312,-135.61,46.70,250.15,-5.752,-3.627,-6.631,-21.94,189.51,9.38
20191007-1524-FRANKFURT_1-01-51,Barani A,-6.743,-1.013,-3.746,-53.24,-108.07,42.05,-1.536,-0.351,-9.923,-96.92,-137.19,218.57,-3.249,-3.612,-7.190,-98.99,94.97,251.35,-5.279,-3.419,-4.809,-6.97,179.03,50.75
20191007-1524-FRANKFURT_1-01-53,Barani A,-7.367,-1.144,-3.622,-43.33,-91.83,54.06,-1.124,-1.712,-8.753,-221.99,-122.23,153.46,-2.321,-0.948,-6.837,-130.02,-8.28,229.06,-2.829,-4.231,-5.475,-5.63,161.61,109.39
20191007-1524-FRANKFURT_1-01-55,Barani A,-5.747,0.455,-5.672,-63.54,-76.41,64.45,-0.683,0.620,-9.607,-133.93,-116.20,194.68,-2.553,-4.206,-6.102,-127.00,83.34,207.50,-4.291,-2.936,-5.652,-17.66,180.75,29.41
20191007-1524-FRANKFURT_1-01-57,Barani A,-5.085,0.769,-6.710,-99.37,-90.66,76.45,-0.865,0.404,-9.158,-168.86,-120.95,148.86,-2.533,-2.926,-7.175,-116.57,62.67,249.50,-5.867,-2.821,-6.683,-3.32,202.47,21.32
20191007-1524-FRANKFURT_1-01-59,Barani A,-5.857,0.883,-5.688,-60.97,-115.28,59.16,-2.676,0.974,-9.293,-140.66,-175.14,159.41,-3.805,-3.743,-7.275,-99.87,102.33,266.77,-5.446,-2.515,-6.278,-8.99,181.44,90.57
20191007-1524-FRANKFURT_1-01-75,Fliffis- Rudi B,-40.787,1.463,-10.085,-71.16,-750.97,28.15,-20.290,5.825,-11.862,-47.92,-294.30,401.39,-25.824,-9.980,3.442,563.72,-462.11,759.56,-13.110,-5.016,-11.166,96.81,270.40,278.14
20191007-1524-FRANKFURT_1-01-76,Doppelsalto C,-12.608,-3.175,-17.526,1.23,150.80,-45.59,-40.965,1.381,-25.070,64.74,703.71,-22.24,-30.988,-1.168,-16.551,38.13,660.43,-130.87,-6.149,-0.527,-9.113,26.39,181.78,-5.24
20191007-1524-FRANKFURT_1-01-77,Fliffis- Rudi C,-43.125,-3.555,-13.241,68.87,-617.10,83.19,-37.515,6.151,-32.014,-143.85,-689.41,262.96,-46.217,0.192,24.431,650.83,34.32,980.88,-13.770,1.737,-11.324,91.99,294.17,329.74
20191007-1524-FRANKFURT_1-01-91,Fliffis- Rudi B,-43.005,-0.664,-10.292,-35.37,-785.06,57.10,-17.521,-0.626,-9.947,-33.89,-328.99,323.18,-28.695,-16.840,1.123,550.32,-415.17,852.11,-15.805,-4.788,-12.982,58.03,283.14,305.09
20191007-1524-FRANKFURT_1-01-92,Doppelsalto C,-12.966,-3.361,-21.865,9.76,212.41,-44.13,-39.860,0.928,-26.952,57.94,701.78,-14.56,-20.605,0.372,-22.236,46.41,527.64,-37.94,-7.263,-0.938,-11.282,18.86,154.19,14.08
20191007-1524-FRANKFURT_1-01-93,Fliffis- Rudi C,-41.427,-8.163,-18.014,43.89,-675.62,-25.10,-32.833,10.319,-28.532,-135.68,-624.89,323.94,-47.452,0.497,24.710,661.80,-63.99,1004.72,-18.283,-4.099,-11.624,51.63,393.26,364.29
20191007-1524-FRANKFURT_1-01-94,Salto B,-6.075,-2.912,-5.523,-21.60,-123.20,55.93,-9.212,-0.798,-16.236,4.14,517.06,-40.81,-6.771,0.082,1.120,0.54,272.13,-6.95,-3.914,-1.969,-5.069,12.04,126.52,20.31
20191007-1524-FRANKFURT_1-01-95,Fliffis B,-34.916,0.275,-13.992,-43.57,-729.41,57.88,-41.191,3.233,-11.572,-78.83,-707.33,151.65,-14.494,5.832,-10.246,-51.69,-137.45,374.35,-11.357,-2.785,-13.282,22.70,231.22,293.61
20191007-1524-FRANKFURT_1-01-96,Doppelsalto B,-6.070,-1.927,-9.259,-26.79,-7.67,1.69,-12.084,0.992,-11.252,23.10,418.02,14.00,-1.648,-0.569,-4.300,25.33,174.48,-13.76,-3.210,-1.045,-4.792,1.66,93.64,21.84
20191007-1524-FRANKFURT_1-01-97,Fliffis C,-35.864,-3.159,-10.141,-22.16,-596.54,96.73,-48.489,2.193,-29.742,-38.74,-734.61,124.44,-7.432,2.079,-22.820,-177.10,-92.50,374.54,-8.049,-4.388,-9.260,8.93,173.98,223.77
20191007-1524-FRANKFURT_1-01-98,Salto A,-2.351,-2.667,-6.465,-18.49,91.58,-61.31,-10.633,-1.241,-7.580,16.31,336.17,12.59,-5.406,-0.564,-2.959,4.25,204.70,-46.35,-4.954,-1.549,-2.284,2.90,211.06,-36.02
20191007-1524-FRANKFURT_1-01-109,Fliffis- Rudi B,-41.165,2.333,-8.235,-116.29,-748.04,18.89,-19.938,4.484,-10.312,52.81,-271.32,322.64,-22.072,-6.104,-0.845,497.56,-525.92,755.71,-11.217,-2.244,-12.727,73.74,289.49,313.23
20191007-1524-FRANKFURT_1-01-110,Doppelsalto C,-15.447,-2.247,-19.266,-13.41,195.75,-20.60,-40.702,-0.371,-25.848,23.69,711.69,1.38,-22.303,1.081,-17.921,85.74,543.71,2.06,-6.534,1.025,-10.313,44.88,177.87,37.05
20191007-1524-FRANKFURT_1-01-111,Fliffis- Rudi C,-37.953,-3.394,-13.654,36.24,-618.27,47.67,-38.501,9.585,-35.686,-166.64,-660.21,308.99,-33.999,2.157,5.708,416.89,141.19,984.38,-14.705,-9.375,-8.226,92.83,304.94,496.22
20191007-1524-FRANKFURT_1-01-112,Salto B,-9.669,-2.976,-9.434,-26.22,-175.94,-48.85,-13.778,0.514,-20.414,76.79,595.89,26.21,-1.390,-1.928,-2.519,-4.50,151.77,-29.02,-3.442,-1.300,-4.638,7.55,83.13,36.62
20191007-1524-FRANKFURT_1-01-113,Fliffis B,-31.950,1.223,-10.976,-83.92,-710.98,36.49,-37.775,5.355,-11.558,-99.84,-656.05,132.59,-9.939,8.617,-11.011,0.20,-82.72,447.68,-13.194,-2.661,-11.970,93.83,326.02,225.88
20191007-1524-FRANKFURT_1-01-114,Doppelsalto B,-6.054,-1.116,-9.143,-23.94,1.54,-18.70,-13.861,0.240,-13.851,60.60,466.71,11.58,-1.545,-1.536,-5.674,3.69,156.25,-23.86,-3.873,-0.503,-4.453,10.74,120.96,-4.68
20191007-1524-FRANKFURT_1-01-115,Fliffis C,-34.187,-1.775,-9.668,-48.08,-562.92,41.41,-44.556,2.040,-30.263,-40.26,-717.95,118.45,-5.044,2.435,-23.316,-183.51,-27.94,352.84,-9.877,-6.107,-9.900,-8.63,181.29,237.14
20191007-1524-FRANKFURT_1-01-116,Salto A,1.022,-1.967,-4.335,5.38,181.46,-48.43,-1.427,-0.885,-6.733,-4.16,157.61,-19.29,-4.979,-1.605,-6.542,11.27,203.77,1.98,-9.712,-1.586,-4.814,46.72,281.82,-31.50
20191007-1524-FRANKFURT_1-01-140,Fliffis- Rudi B,-39.386,0.813,-10.012,-68.34,-741.57,45.73,-18.285,0.800,-9.424,-1.52,-310.72,301.01,-23.652,-13.882,1.225,482.77,-391.61,817.59,-16.172,-2.435,-11.525,99.87,295.04,350.23
20191007-1524-FRANKFURT_1-01-141,Doppelsalto B,-10.561,-1.210,-18.764,12.19,98.78,-10.20,-37.957,0.408,-21.672,52.29,689.75,-9.20,-33.013,0.831,-20.461,111.51,644.01,-44.09,-7.059,0.167,-8.236,18.35,151.94,-26.29
20191007-1524-FRANKFURT_1-01-142,Fliffis- Rudi C,-37.319,-6.324,-15.827,73.87,-607.53,7.86,-39.469,6.502,-34.428,-122.25,-687.73,276.88,-41.912,6.251,13.811,477.32,9.08,1069.17,-14.531,-1.322,-9.831,97.42,254.55,400.47
20191007-1524-FRANKFURT_1-01-143,Salto B,-6.089,-1.020,-7.706,-23.75,-168.62,13.58,-10.056,-1.261,-19.085,-8.96,574.56,-54.97,-5.870,-1.052,0.941,0.46,267.81,-63.29,-3.747,-0.696,-5.189,-1.65,86.97,19.54
20191007-1524-FRANKFURT_1-01-144,Fliffis B,-34.966,-0.647,-12.351,-33.17,-766.11,24.43,-41.165,1.084,-12.100,-9.08,-693.90,143.05,-8.475,16.160,-12.119,-7.84,-144.95,459.50,-15.357,-1.414,-14.235,95.67,237.92,239.36
20191007-1524-FRANKFURT_1-01-145,Salto C,-7.336,-0.093,-20.695,-64.68,-128.41,-65.01,-40.713,4.024,-5.638,92.10,730.18,-22.79,-41.669,4.005,-33.216,152.38,835.16,-20.26,-13.001,0.214,-10.202,7.91,264.29,0.56
20191007-1524-FRANKFURT_1-01-146,Fliffis C,-40.499,-1.017,-10.913,55.94,-600.46,23.18,-48.003,-2.729,-31.308,46.09,-711.44,56.27,-15.800,2.465,-25.377,-59.12,-105.70,401.27,-10.306,-5.162,-12.274,25.75,262.98,182.36
20191007-1524-FRANKFURT_1-01-147,Salto A,3.404,-0.151,-4.006,-5.67,173.59,-91.23,-1.144,-1.531,-6.458,-4.83,182.65,-36.49,-3.322,-1.167,-6.884,-19.50,173.32,-11.74,-7.589,-0.137,-4.871,41.23,216.89,12.52
20191007-1524-FRANKFURT_1-01-163,Fliffis- Rudi B,-39.949,0.265,-8.549,-40.35,-755.34,0.39,-20.776,4.689,-7.850,-9.95,-363.36,321.88,-30.558,-7.586,7.783,491.58,-222.56,860.05,-13.523,-2.618,-14.175,-0.06,215.25,439.11
20191007-1524-FRANKFURT_1-01-164,Doppelsalto B,-10.850,0.697,-18.454,22.19,157.19,4.34,-38.786,3.246,-24.998,64.59,700.86,-15.77,-31.121,1.673,-18.123,99.78,599.75,-45.12,-7.388,-0.811,-10.188,5.86,180.57,20.02
20191007-1524-FRANKFURT_1-01-165,Fliffis- Rudi C,-42.433,-2.471,-18.848,-32.74,-651.66,34.07,-31.059,9.074,-30.242,-166.38,-620.96,188.83,-43.557,-1.115,13.532,489.86,-1.07,1009.31,-14.621,-4.399,-13.499,16.92,260.98,380.20
20191007-1524-FRANKFURT_1-01-177,Fliffis- Rudi B,-40.047,-1.459,-8.457,-30.90,-771.61,-21.75,-19.886,3.510,-6.638,50.81,-414.66,282.46,-32.785,-17.746,8.304,565.54,-412.43,829.88,-16.867,-3.220,-12.792,54.56,280.53,342.24
20191007-1524-FRANKFURT_1-01-178,Doppelsalto B,-13.703,-2.322,-20.228,18.11,156.32,30.76,-41.058,2.242,-26.661,37.98,704.08,-22.32,-31.449,-0.628,-19.022,97.65,654.72,-58.04,-8.606,-0.474,-9.752,8.79,182.85,7.37
20191007-1524-FRANKFURT_1-01-179,Fliffis- Rudi C,-40.287,-2.840,-16.858,54.96,-624.28,35.50,-35.265,8.541,-34.604,-154.48,-617.65,266.00,-39.631,4.916,8.726,425.75,17.47,1025.52,-16.571,-8.292,-14.028,-53.68,226.52,578.74
20191007-1524-FRANKFURT_1-01-180,Salto B,-5.435,-0.890,-7.014,19.45,-145.91,51.75,-8.638,-0.474,-16.288,39.23,529.37,7.90,-8.410,1.224,1.500,30.80,309.39,11.27,-1.045,-1.390,-5.877,28.69,59.49,-61.82
20191007-1524-FRANKFURT_1-01-181,Fliffis B,-32.461,5.133,-13.449,-172.87,-714.76,39.03,-37.506,7.248,-13.185,-125.03,-668.53,73.51,-12.778,7.847,-12.731,-113.39,-171.45,403.93,-11.561,-4.401,-13.382,50.73,208.38,341.71
20191007-1524-FRANKFURT_1-01-182,Doppelsalto C,-15.671,-2.101,-18.916,58.82,262.25,-27.59,-33.807,0.434,-21.927,26.40,635.66,-24.41,-30.388,0.632,-21.157,93.26,676.05,-5.38,-8.600,-3.338,-8.946,23.85,192.27,-10.08
20191007-1524-FRANKFURT_1-01-194,Fliffis- Rudi B,-40.741,2.338,-8.430,-103.11,-746.51,57.63,-19.134,4.506,-7.430,29.78,-339.56,298.07,-21.847,-12.905,0.480,500.42,-402.15,783.27,-15.472,-0.947,-11.902,107.02,283.41,323.40
20191007-1524-FRANKFURT_1-01-195,Doppelsalto B,-12.076,-2.305,-20.272,-13.15,111.55,-14.25,-40.135,-0.051,-26.066,12.55,696.31,-20.28,-27.633,1.360,-21.589,81.00,629.99,-19.13,-6.580,0.105,-10.726,5.92,180.53,30.67
20191007-1524-FRANKFURT_1-01-196,Fliffis- Rudi C,-38.695,-4.178,-15.237,77.46,-593.20,39.09,-34.800,6.342,-34.722,-162.84,-633.48,260.81,-38.820,1.429,9.826,453.47,-11.90,1012.26,-17.382,-9.963,-10.180,40.95,295.14,463.87
20191007-1524-FRANKFURT_1-01-197,Salto B,-5.004,-0.581,-6.555,-64.06,-112.19,-12.40,-8.396,-1.633,-16.553,-13.21,541.68,-13.48,-4.239,-0.889,0.466,-8.34,238.86,-59.98,-3.317,-1.539,-5.315,2.75,71.37,13.05
20191007-1524-FRANKFURT_1-01-198,Fliffis B,-33.798,1.633,-10.489,-90.57,-725.96,39.53,-38.063,6.880,-11.648,-109.62,-637.09,172.97,-10.436,14.490,-15.121,0.52,-43.96,425.01,-18.688,-1.787,-13.213,52.05,383.23,177.00
20191007-1524-FRANKFURT_1-01-211,Fliffis- Rudi B,-43.426,2.455,-8.709,-98.36,-746.29,22.41,-16.655,16.984,-13.827,69.11,-178.89,541.42,-43.986,-17.027,-18.515,180.52,-326.96,939.75,-11.607,-3.953,-13.723,44.90,255.81,230.85
20191007-1524-FRANKFURT_1-01-212,Doppelsalto B,-12.209,-1.558,-17.813,19.49,139.19,25.04,-40.061,0.197,-22.836,24.92,712.04,-28.29,-29.132,-0.979,-17.028,87.83,591.51,-71.12,-6.942,-0.587,-8.808,31.13,176.05,-5.23
20191007-1524-FRANKFURT_1-01-213,Fliffis- Rudi C,-38.016,-1.882,-14.001,11.16,-616.26,65.39,-33.792,11.921,-31.912,-195.74,-665.02,261.82,-39.020,10.565,8.436,452.70,-69.36,1011.40,-16.634,-6.821,-11.127,21.46,229.74,508.29
20191007-1524-FRANKFURT_1-01-214,Salto B,-8.715,0.074,-7.064,-15.70,-168.19,-20.25,-17.103,-0.268,-23.333,36.69,560.78,27.40,0.152,-0.593,-5.106,21.89,148.87,18.41,-5.055,0.960,-3.574,39.09,132.90,17.02
20191007-1524-FRANKFURT_1-01-215,Fliffis B,-36.968,2.043,-13.692,-134.49,-755.80,47.52,-39.445,9.539,-12.984,-128.68,-668.28,144.91,-17.506,8.407,-14.158,8.42,18.97,417.95,-13.621,-3.660,-15.373,55.88,207.04,150.94
20191007-1524-FRANKFURT_1-01-216,Salto C,-6.775,-0.528,-17.190,-11.80,-169.59,-22.92,-33.905,4.547,-5.340,72.13,710.66,-15.76,-42.088,5.178,-31.976,173.27,824.99,-42.93,-16.306,-0.748,-8.166,53.96,274.67,-16.22
20191007-1524-FRANKFURT_1-01-217,Fliffis C,-41.081,2.209,-12.519,-57.01,-570.95,48.24,-47.460,5.088,-34.629,-38.50,-731.07,58.10,-8.429,6.027,-28.493,-184.26,-157.92,405.07,-8.190,-6.442,-12.875,51.84,275.99,117.63
20191007-1524-FRANKFURT_1-01-218,Salto A,2.979,-2.157,-4.413,29.42,204.54,-91.20,-1.935,-0.482,-6.920,9.10,201.39,-13.00,-2.905,-1.123,-7.271,3.66,199.08,-12.66,-6.584,0.146,-4.213,34.10,190.32,-9.34
20191007-1524-FRANKFURT_1-01-232,Fliffis- Rudi B,-41.036,1.499,-9.372,-111.33,-739.61,-17.04,-18.466,5.416,-8.621,117.32,-321.34,330.52,-32.398,-15.845,2.089,526.20,-438.18,816.90,-17.846,-2.629,-13.712,64.90,326.80,328.20
20191007-1524-FRANKFURT_1-01-233,Doppelsalto B,-16.696,-0.293,-17.337,-7.79,181.69,20.53,-40.070,2.817,-26.391,55.64,693.84,29.01,-29.322,0.987,-17.892,71.66,633.23,-70.13,-7.444,-0.738,-9.781,4.87,190.71,40.18
20191007-1524-FRANKFURT_1-01-251,Fliffis- Rudi B,-41.850,-1.967,-9.773,5.75,-775.51,-15.78,-24.148,5.520,-9.181,-38.17,-487.22,176.27,-41.390,-0.738,18.015,599.93,-114.60,948.56,-12.463,-1.854,-14.017,5.40,281.12,428.31
20191007-1524-FRANKFURT_1-01-252,Doppelsalto B,-10.973,-0.006,-18.646,15.61,124.78,-0.53,-39.218,3.118,-23.390,74.19,689.95,-2.10,-30.035,1.215,-20.708,100.47,647.78,-32.31,-5.890,0.996,-8.628,25.63,176.04,-7.95
20191007-1524-FRANKFURT_1-01-253,Fliffis- Rudi C,-36.864,-0.470,-12.794,12.38,-566.10,67.55,-37.593,7.312,-34.900,-179.65,-700.93,214.02,-41.681,7.135,8.112,448.63,-1.60,1042.20,-13.906,-2.399,-12.809,35.54,252.43,422.99
20191007-1524-FRANKFURT_1-01-264,Fliffis- Rudi B,-40.533,2.654,-10.824,-123.09,-781.28,-1.13,-19.365,5.019,-9.877,9.72,-327.87,303.84,-32.824,-16.606,-1.165,476.40,-388.85,892.20,-14.583,-4.693,-13.526,36.43,252.38,263.09
20191007-1524-FRANKFURT_1-01-265,Doppelsalto B,-10.420,-2.478,-22.870,-25.52,85.88,38.08,-41.630,4.406,-28.610,81.34,708.31,15.57,-30.455,2.462,-24.470,118.22,665.11,-45.23,-7.056,-1.070,-10.037,-8.72,185.72,-8.75
20191007-1524-FRANKFURT_1-01-266,Fliffis- Rudi C,-38.575,-2.923,-17.376,-66.40,-644.21,5.29,-37.667,6.970,-35.949,-148.46,-650.67,185.17,-32.190,4.802,1.227,373.02,142.10,1057.82,-13.162,-11.440,-14.140,-29.21,263.41,527.67
20191007-1524-FRANKFURT_1-01-267,Salto B,-5.466,-2.749,-6.412,-4.26,-130.94,37.24,-7.779,-0.419,-16.261,24.22,573.24,-26.39,-8.548,-0.711,1.867,18.72,283.63,-41.94,-5.672,-2.097,-4.442,28.55,130.52,104.98
20191007-1524-FRANKFURT_1-01-268,Fliffis B,-32.646,3.159,-13.234,-140.61,-743.44,43.05,-40.019,8.423,-10.385,-134.93,-680.69,117.86,-11.037,7.143,-12.092,-100.77,-113.50,397.73,-12.946,-0.746,-13.567,80.27,274.97,181.23
20191007-1524-FRANKFURT_1-01-276,Fliffis- Rudi B,-39.374,3.032,-10.273,-124.03,-755.44,8.51,-19.664,4.202,-7.233,43.94,-432.77,229.21,-25.255,-11.420,9.816,570.04,-441.75,761.81,-16.097,-4.115,-11.725,57.89,298.31,381.74
20191007-1524-FRANKFURT_1-01-277,Doppelsalto B,-12.530,0.566,-18.154,-10.77,130.13,13.28,-39.553,3.126,-22.012,79.09,701.71,-3.87,-31.545,2.738,-18.352,126.74,610.70,-39.29,-6.670,0.484,-9.494,14.26,134.22,-23.39
20191007-1524-FRANKFURT_1-01-278,Fliffis- Rudi C,-39.905,2.272,-13.796,-75.87,-624.55,86.95,-25.125,11.860,-25.718,-156.31,-547.46,221.36,-44.341,-4.241,22.870,626.90,-101.81,984.71,-13.448,-2.406,-12.749,60.39,232.34,302.98
20191007-1524-FRANKFURT_1-01-279,Salto B,-7.399,-2.072,-7.287,-59.54,-142.45,-7.73,-8.896,0.851,-16.925,40.08,546.44,-41.82,-6.527,0.761,0.925,33.26,247.34,-48.85,-3.703,-1.774,-5.167,21.16,117.46,69.06
20191007-1524-FRANKFURT_1-01-280,Fliffis B,-36.963,4.561,-8.690,-96.00,-782.06,45.51,-43.164,8.194,-13.179,-109.90,-664.80,166.98,-15.032,11.278,-14.215,-35.34,-104.04,455.11,-13.440,-3.945,-14.873,80.88,261.45,203.08
20191007-1524-FRANKFURT_1-01-281,Doppelsalto C,-7.542,-2.797,-16.564,-4.96,-46.23,-31.21,-34.993,3.425,-4.552,73.60,696.29,-51.24,-39.301,3.298,-15.148,116.05,749.21,-60.71,-29.434,3.065,-9.448,39.45,504.52,-28.49
20191007-1534-FRANKFURT_2-01-28,Barani A,-6.421,1.399,-6.831,-13.27,-75.31,127.65,-2.493,-1.637,-9.763,-197.51,-41.67,251.04,-3.308,-3.408,-8.235,-104.50,138.47,171.64,-6.508,-1.857,-6.388,-14.12,212.38,-5.44
20191007-1534-FRANKFURT_2-01-30,Barani A,-6.015,0.947,-6.070,-7.66,-83.11,121.87,-1.981,-2.109,-11.535,-188.09,-37.74,276.69,-3.338,-3.146,-8.058,-144.22,128.68,175.74,-5.488,-1.036,-5.848,-8.07,179.95,52.08
20191007-1534-FRANKFURT_2-01-32,Barani A,-6.743,0.733,-5.936,-19.54,-130.94,111.74,-2.127,-1.632,-8.990,-180.17,-15.56,267.13,-3.767,-3.871,-8.032,-90.91,122.72,192.42,-6.429,-1.724,-6.867,-13.41,238.79,-16.79
20191007-1534-FRANKFURT_2-01-34,Barani A,-6.230,0.048,-5.514,-48.86,-93.73,109.31,-2.582,-0.911,-11.086,-195.52,-60.22,270.15,-3.884,-2.744,-7.979,-80.46,162.22,180.83,-6.416,-0.674,-5.749,13.17,209.82,0.04
20191007-1534-FRANKFURT_2-01-36,Barani A,-6.621,0.505,-5.228,-30.53,-147.57,115.67,-2.844,-1.536,-9.820,-176.53,-21.29,284.50,-3.231,-4.596,-7.995,-88.07,101.70,195.98,-7.532,-2.293,-7.313,-29.40,267.57,-0.58
20191007-1534-FRANKFURT_2-01-38,Barani A,-6.658,1.336,-5.795,-15.11,-91.51,121.57,-2.901,-0.338,-9.745,-176.25,-45.24,267.90,-3.695,-3.392,-6.994,-93.75,125.29,195.21,-5.957,-1.452,-4.459,4.13,223.41,52.69
20191007-1534-FRANKFURT_2-01-46,Barani A,-6.279,0.614,-5.834,5.44,-144.41,89.32,-2.111,-1.510,-9.986,-189.66,-78.84,248.40,-3.194,-3.193,-8.820,-123.87,118.50,186.61,-5.928,-1.947,-6.466,-17.25,203.24,34.75
20191007-1534-FRANKFURT_2-01-48,Barani A,-6.074,0.390,-5.365,22.95,-108.09,110.91,-3.235,-0.452,-8.969,-153.88,-41.22,265.74,-2.694,-3.124,-7.768,-85.89,106.92,163.29,-6.870,-1.827,-6.331,3.39,249.03,21.68
20191007-1534-FRANKFURT_2-01-50,Barani A,-5.895,0.310,-5.502,-8.88,-134.82,123.49,-1.881,-1.138,-9.040,-172.38,-40.30,228.71,-2.409,-2.220,-8.556,-162.96,98.82,164.70,-4.745,-2.905,-7.075,-11.14,187.73,27.07
20191007-1534-FRANKFURT_2-01-52,Barani A,-5.227,0.872,-4.947,-23.20,-149.44,116.50,-2.872,-1.797,-8.883,-179.98,20.85,306.52,-3.155,-2.878,-8.853,-65.51,121.87,169.45,-9.544,0.399,-7.256,17.01,306.09,-18.58
20191007-1534-FRANKFURT_2-01-54,Barani A,-7.165,0.710,-6.410,-14.97,-131.88,106.55,-3.700,-0.922,-11.750,-170.71,-80.68,283.63,-4.118,-2.833,-8.771,-108.25,149.23,206.71,-7.430,-1.048,-7.660,-9.44,232.53,16.94
20191007-1534-FRANKFURT_2-01-65,Fliffis B,-35.515,-1.182,-17.363,-19.89,-820.19,139.01,-36.072,3.403,-4.979,-67.36,-670.66,150.54,-10.724,9.318,-10.934,37.09,-9.07,417.42,-9.654,-1.891,-10.597,4.97,257.24,97.20
20191007-1534-FRANKFURT_2-01-75,Fliffis B,-41.422,0.725,-16.472,-75.59,-836.53,121.03,-32.349,5.801,-8.285,-90.02,-603.82,176.98,-9.923,4.987,-16.315,11.32,102.21,469.54,-12.401,-2.057,-14.451,10.80,296.98,49.53
20191007-1534-FRANKFURT_2-01-76,Salto B,-11.719,-0.244,-7.472,1.21,-134.80,58.52,-23.897,0.109,-15.833,38.77,659.65,-61.06,-2.201,-0.693,-2.616,2.13,159.90,2.30,-5.101,-1.005,-3.749,0.03,149.14,-6.29
20191007-1534-FRANKFURT_2-01-77,Fliffis C,-43.265,-1.106,-16.793,4.43,-759.60,53.50,-57.159,3.049,-27.965,-67.43,-797.23,140.08,-10.335,0.917,-14.093,3.91,50.08,420.47,-11.072,-3.648,-12.052,-10.90,259.51,146.99
20191007-1534-FRANKFURT_2-01-78,Salto A,0.159,-0.055,-3.268,-12.38,271.58,-9.79,-1.575,-1.657,-7.605,-5.71,200.90,-39.62,-3.011,-1.895,-6.924,-18.65,203.35,-25.87,-6.677,-1.031,-5.309,-12.88,198.13,-21.83
20191007-1534-FRANKFURT_2-01-79,Barani A,-6.567,1.283,-6.606,-8.90,-136.24,145.79,-2.785,-1.040,-11.271,-188.52,-48.65,284.04,-3.738,-2.832,-8.195,-93.04,164.79,182.98,-6.718,-1.877,-5.839,-3.91,197.61,-20.30
20191007-1534-FRANKFURT_2-01-80,Schraubensalto A,-5.041,3.433,-0.312,216.79,144.68,275.44,-12.190,-2.102,-5.232,114.71,-144.01,469.98,-5.190,-2.959,-8.444,-95.84,96.50,309.91,-5.420,-2.352,-6.162,58.49,213.95,86.03
20191007-1534-FRANKFURT_2-01-90,Fliffis B,-34.892,-2.840,-18.045,17.57,-807.56,132.93,-34.844,2.471,-5.467,-34.65,-668.04,158.28,-10.739,13.900,-10.906,46.49,7.10,355.78,-9.821,-2.410,-11.526,1.73,219.03,145.10
20191007-1534-FRANKFURT_2-01-91,Salto B,-11.472,-1.297,-7.069,5.27,-146.52,46.75,-23.793,1.160,-13.940,52.01,638.56,-62.55,-1.937,-0.923,-3.028,-2.80,159.64,-8.89,-3.041,-1.111,-5.287,0.91,151.25,-26.73
20191007-1534-FRANKFURT_2-01-92,Fliffis C,-44.653,-0.452,-15.707,-2.02,-765.94,112.94,-54.500,3.421,-27.631,-71.83,-784.70,116.65,-8.718,-1.641,-13.969,-72.94,82.67,454.44,-8.614,-3.926,-13.750,-12.29,302.37,49.46
20191007-1534-FRANKFURT_2-01-93,Salto A,0.532,-0.433,-3.677,-16.94,238.04,13.39,-0.823,-1.601,-7.211,-8.33,176.59,-11.61,-2.822,-1.883,-6.874,-24.96,161.25,-13.47,-5.711,-2.065,-5.587,-21.66,233.70,-22.86
20191007-1534-FRANKFURT_2-01-94,Barani A,-6.163,0.242,-6.948,-5.98,-153.33,127.41,-3.160,-0.260,-11.388,-188.71,-63.21,286.34,-4.220,-3.163,-9.239,-89.95,185.70,212.09,-7.067,-1.250,-2.005,-2.20,181.84,3.65
20191007-1534-FRANKFURT_2-01-95,Schraubensalto A,-3.454,1.762,-2.177,179.84,139.39,244.33,-9.679,-3.877,-3.033,193.40,-167.32,407.08,-5.696,-3.535,-9.925,-122.42,48.49,349.33,-7.053,-2.113,-6.629,29.54,217.84,66.37
20191007-1534-FRANKFURT_2-01-103,Barani A,-7.127,0.808,-6.251,-14.43,-115.83,117.07,-3.121,-0.815,-11.286,-182.07,-50.41,293.94,-3.681,-3.481,-7.784,-83.16,137.86,171.44,-6.997,-1.662,-6.809,0.21,227.19,-17.04
20191007-1534-FRANKFURT_2-01-104,Schraubensalto A,-4.078,2.166,-2.924,188.85,153.22,246.16,-10.378,-1.675,-2.699,184.60,-157.75,433.26,-6.001,-4.099,-10.044,-131.56,109.79,341.79,-3.992,-2.007,-6.860,26.63,189.95,43.97
20191007-1534-FRANKFURT_2-01-105,Barani C,-12.697,0.733,-7.987,-7.33,-477.64,100.14,-6.369,1.430,-10.935,-9.62,29.28,306.25,-2.768,-2.873,-6.207,-123.60,88.84,188.80,-4.936,-1.222,-4.468,-21.78,157.65,12.90
