SprungID,Sprungtyp,Acc_x_Fil_1,Acc_y_Fil_1,Acc_z_Fil_1,Gyro_x_Fil_1,Gyro_y_Fil_1,Gyro_z_Fil_1,Acc_x_Fil_2,Acc_y_Fil_2,Acc_z_Fil_2,Gyro_x_Fil_2,Gyro_y_Fil_2,Gyro_z_Fil_2,Acc_x_Fil_3,Acc_y_Fil_3,Acc_z_Fil_3,Gyro_x_Fil_3,Gyro_y_Fil_3,Gyro_z_Fil_3,Acc_x_Fil_4,Acc_y_Fil_4,Acc_z_Fil_4,Gyro_x_Fil_4,Gyro_y_Fil_4,Gyro_z_Fil_4,Acc_x_Fil_5,Acc_y_Fil_5,Acc_z_Fil_5,Gyro_x_Fil_5,Gyro_y_Fil_5,Gyro_z_Fil_5,Acc_x_Fil_6,Acc_y_Fil_6,Acc_z_Fil_6,Gyro_x_Fil_6,Gyro_y_Fil_6,Gyro_z_Fil_6,Acc_x_Fil_7,Acc_y_Fil_7,Acc_z_Fil_7,Gyro_x_Fil_7,Gyro_y_Fil_7,Gyro_z_Fil_7,Acc_x_Fil_8,Acc_y_Fil_8,Acc_z_Fil_8,Gyro_x_Fil_8,Gyro_y_Fil_8,Gyro_z_Fil_8,Acc_x_Fil_9,Acc_y_Fil_9,Acc_z_Fil_9,Gyro_x_Fil_9,Gyro_y_Fil_9,Gyro_z_Fil_9,Acc_x_Fil_10,Acc_y_Fil_10,Acc_z_Fil_10,Gyro_x_Fil_10,Gyro_y_Fil_10,Gyro_z_Fil_10,Acc_x_Fil_11,Acc_y_Fil_11,Acc_z_Fil_11,Gyro_x_Fil_11,Gyro_y_Fil_11,Gyro_z_Fil_11,Acc_x_Fil_12,Acc_y_Fil_12,Acc_z_Fil_12,Gyro_x_Fil_12,Gyro_y_Fil_12,Gyro_z_Fil_12,Acc_x_Fil_13,Acc_y_Fil_13,Acc_z_Fil_13,Gyro_x_Fil_13,Gyro_y_Fil_13,Gyro_z_Fil_13,Acc_x_Fil_14,Acc_y_Fil_14,Acc_z_Fil_14,Gyro_x_Fil_14,Gyro_y_Fil_14,Gyro_z_Fil_14,Acc_x_Fil_15,Acc_y_Fil_15,Acc_z_Fil_15,Gyro_x_Fil_15,Gyro_y_Fil_15,Gyro_z_Fil_15,Acc_x_Fil_16,Acc_y_Fil_16,Acc_z_Fil_16,Gyro_x_Fil_16,Gyro_y_Fil_16,Gyro_z_Fil_16,Acc_x_Fil_17,Acc_y_Fil_17,Acc_z_Fil_17,Gyro_x_Fil_17,Gyro_y_Fil_17,Gyro_z_Fil_17,Acc_x_Fil_18,Acc_y_Fil_18,Acc_z_Fil_18,Gyro_x_Fil_18,Gyro_y_Fil_18,Gyro_z_Fil_18,Acc_x_Fil_19,Acc_y_Fil_19,Acc_z_Fil_19,Gyro_x_Fil_19,Gyro_y_Fil_19,Gyro_z_Fil_19,Acc_x_Fil_20,Acc_y_Fil_20,Acc_z_Fil_20,Gyro_x_Fil_20,Gyro_y_Fil_20,Gyro_z_Fil_20,DJump_SIG_I_x LapEnd,DJump_SIG_I_y LapEnd,DJump_SIG_I_z LapEnd,DJump_Abs_I_x LapEnd,DJump_Abs_I_y LapEnd,DJump_Abs_I_z LapEnd
20191008-1207-FRANKFURT_2-01-364,Salto A,7.406,22.43,51.012,28.49,287.69,-91.92,-1.652,2.554,6.363,7.27,284.62,42.07,-1.17,-1.923,-10.607,69.41,171.92,-99.01,1.983,-2.422,-1.827,7.28,107.57,-77.18,1.838,-3.857,-9.382,-0.27,132.68,-60.86,-1.617,-1.157,-8.609,13.93,169.73,-45.32,-3.131,-2.44,-7.976,17.48,212.66,-53.31,-2.839,-0.969,-7.375,16.73,216.62,-67.66,-2.715,-1.062,-6.965,36.17,217.69,-51.04,-3.847,-1.514,-7.181,36.54,209.16,-53.17,-3.236,-1.489,-5.86,20.81,206.55,-51.09,-3.021,-1.756,-6.035,17.33,184.72,-32.91,-3.558,-2.181,-6.66,21.8,173.68,-21.65,-4.763,-1.136,-6.569,20.45,170.66,-34.08,-5.505,-1.338,-6.414,12.77,173.19,-20.3,-6.193,-1.613,-6.809,12.9,168.86,-26.98,-8.206,-1.772,-6.779,19.92,176.03,-49.77,-7.735,-0.576,-3.502,33.95,277.1,-45.78,-3.401,0.962,1.989,55.59,397.14,-38.94,6.724,6.051,34.429,110.13,380.65,-179.21,48.935,342.174,-87.658,50.904,344.94,98.19
20191003-1152-FRANKFURT_1-01-104,Schraubensalto A,5.078,-1.262,56.532,-30.41,239.25,-46.63,-2.091,-3.511,11.852,-71.05,270.26,-98.09,-3.596,-5.776,-5.786,-143.07,232.0,-152.97,-3.137,-3.174,-1.254,-151.68,164.07,-238.91,-4.622,0.01,-0.885,-160.31,67.67,-321.08,-8.468,-1.687,1.295,-213.75,6.37,-358.33,-13.283,0.03,0.714,-222.33,-103.15,-427.84,-13.228,4.942,-3.791,-143.16,-151.15,-428.32,-8.981,3.425,-10.171,24.48,-125.01,-474.51,-6.45,0.44,-11.482,148.23,-92.4,-472.44,-6.867,3.591,-12.272,159.33,23.9,-449.52,-4.612,4.358,-9.602,131.4,156.06,-359.31,-3.053,3.589,-8.194,98.47,191.18,-239.52,-3.588,0.773,-8.106,55.19,162.22,-175.51,-2.147,0.038,-8.704,25.67,173.37,-106.32,-6.322,0.209,-8.472,36.3,241.29,1.28,-7.852,-0.894,-5.758,14.32,257.65,-11.64,-9.065,-0.629,-3.117,-14.31,251.88,-81.54,-2.669,1.228,0.526,-70.2,270.01,-17.99,6.582,2.148,43.679,-22.86,187.73,26.55,-44.108,202.311,-356.89,162.433,281.927,368.086
20191007-1534-FRANKFURT_2-01-104,Schraubensalto A,3.398,11.817,55.483,-4.35,282.02,2.16,-2.503,2.057,6.84,33.73,269.81,-10.35,-2.388,3.509,-3.144,96.02,248.83,95.94,-3.576,1.888,-3.199,177.67,171.49,222.05,-4.652,-2.757,-2.856,190.61,73.22,319.01,-6.991,-3.385,-0.486,241.79,17.34,327.71,-7.608,-2.745,-0.921,281.38,-66.75,352.57,-9.279,-1.805,-2.764,240.26,-132.55,404.84,-11.003,-2.387,-6.064,96.95,-171.04,459.83,-8.704,-3.057,-11.488,-47.11,-90.96,465.56,-6.615,-3.033,-11.513,-136.54,0.56,438.44,-6.218,-3.251,-10.028,-152.11,78.47,380.63,-5.482,-4.77,-9.234,-111.8,126.72,305.59,-5.407,-3.831,-7.801,-54.95,151.43,232.68,-5.515,-2.573,-6.141,1.17,158.32,175.0,-5.411,-2.44,-4.856,38.73,159.68,108.79,-4.847,-2.189,-6.568,21.27,197.41,36.3,-8.626,-0.349,-1.952,41.2,249.32,33.42,-3.626,-4.4,7.096,57.75,286.61,-20.04,11.753,6.118,41.575,75.85,284.99,-58.61,89.035,190.669,335.873,171.395,266.508,355.733
0609-4-01-600,Barani C,10.921,1.004,53.354,10.92,-148.05,75.02,-3.991,-4.466,1.752,-25.57,-299.31,1.91,-9.86,3.942,-0.084,-34.97,-362.56,31.61,-17.026,2.731,0.463,-28.23,-422.57,53.97,-14.002,1.646,-5.089,-29.13,-402.3,96.74,-9.01,-0.804,-7.806,-35.96,-286.63,127.03,-7.837,2.857,-9.566,7.71,-131.73,165.88,-9.135,2.869,-9.445,21.8,-48.06,203.54,-6.44,-0.261,-2.512,-6.62,-69.89,297.4,-4.445,-0.041,-8.635,-33.18,-61.19,318.61,-5.607,-1.238,-6.69,-43.32,54.24,302.64,-4.683,-1.123,-5.769,-47.04,91.03,257.42,-4.453,-1.114,-5.863,-35.09,123.92,219.46,-4.417,-1.523,-5.625,-6.57,148.55,175.95,-4.652,-1.775,-4.682,9.47,154.4,125.86,-5.1,-1.486,-3.52,9.27,142.56,77.4,-5.608,-0.692,-1.938,17.72,147.83,69.04,-5.681,-0.828,-0.809,27.39,169.8,65.01,0.133,-2.159,3.056,44.38,186.05,38.81,15.972,-3.92,39.024,24.5,200.48,-37.73,-13.808,-71.418,229.805,49.434,315.849,242.231
0827-BK2-01-10,Salto C,17.198,-5.069,48.269,-37.4,123.87,25.93,0.794,0.155,-2.689,30.52,8.01,49.45,-8.587,1.468,-5.386,3.11,-59.87,-32.63,-5.742,2.346,-7.245,16.18,1.39,-20.94,-1.797,0.903,-10.454,39.77,450.38,-8.48,-14.868,2.379,-6.862,41.14,518.19,-28.52,-15.906,0.744,-10.147,-9.43,492.6,-3.44,-16.797,0.319,5.035,-34.17,395.28,26.74,-1.717,0.404,-2.801,-29.55,172.63,-0.76,-0.276,1.374,-3.476,-13.92,125.52,9.38,-1.298,0.56,-2.908,-16.24,125.68,-21.9,-1.182,1.366,-2.459,-5.08,110.13,-18.49,-1.643,0.535,-2.012,1.22,73.97,-4.65,-2.529,0.002,-0.782,-0.99,53.48,-13.44,-1.184,0.668,-2.724,22.88,49.01,7.36,-1.394,0.657,-2.636,6.04,68.57,13.09,-1.799,1.218,-3.327,-8.13,113.55,1.56,-3.778,0.911,-3.454,-21.17,159.78,2.06,-4.771,-0.478,0.374,3.34,199.12,-3.35,11.973,-0.929,40.701,-1.5,229.21,-2.12,0.292,331.756,-1.512,39.136,349.877,38.545
20191007-1159-FRANKFURT_1-01-229,Barani A,13.583,-5.269,59.971,26.72,-157.76,-57.17,-8.54,2.677,5.529,45.24,-328.35,26.78,-5.923,0.62,-3.111,8.95,-269.88,101.8,-7.972,2.022,-4.83,-7.92,-134.56,120.02,-6.107,1.136,-6.338,-56.94,-115.98,133.15,-4.236,1.472,-7.22,-93.21,-150.95,193.08,-4.35,1.655,-9.688,-137.84,-171.08,235.11,-2.63,0.828,-12.589,-140.31,-83.78,293.95,-4.798,-0.44,-8.754,-94.45,4.47,369.42,-4.847,-4.081,-8.52,-66.09,96.65,381.59,-4.058,-5.762,-7.197,-51.04,150.46,281.1,-2.972,-4.234,-6.923,-33.31,175.67,167.68,-3.66,-3.04,-6.988,-9.61,177.82,93.62,-5.937,-1.556,-6.573,5.61,183.75,33.02,-7.824,-0.454,-6.128,8.08,215.64,4.54,-9.163,-0.916,-5.079,9.77,246.75,-10.31,-7.927,0.171,-2.059,-0.8,269.1,-24.09,-5.842,-0.757,1.211,21.78,305.67,-36.33,1.594,-3.441,5.129,4.47,379.6,-40.65,16.049,2.442,52.116,-67.46,162.26,31.44,-50.402,73.044,171.403,73.54,291.198,202.85
20191008-1207-FRANKFURT_2-01-141,Salto B,-2.449,7.267,50.28,16.64,227.93,-57.48,-3.051,-0.888,4.508,23.62,46.32,-10.85,-2.556,-0.922,0.846,1.97,-44.45,-17.58,-8.428,-2.887,-8.839,-19.03,-244.9,-4.01,-10.874,-1.214,-5.239,-33.13,-102.24,20.43,6.323,0.443,-2.249,-0.48,77.61,-55.22,4.46,-0.796,-14.519,3.88,361.49,-37.46,-13.685,-1.283,-22.138,29.13,653.58,-17.24,-24.327,-0.331,-22.962,65.0,673.55,-9.62,-31.266,1.22,-22.977,71.53,627.51,-44.15,-18.231,0.075,-2.37,39.96,489.57,-69.04,-5.795,0.861,3.937,35.08,245.69,-8.42,-1.033,-1.511,-1.632,13.78,117.14,-14.59,0.365,-1.212,-4.002,-13.85,131.96,-23.84,-1.191,-0.981,-3.997,4.45,81.09,-4.21,-2.142,-1.308,-3.982,15.37,68.1,-17.87,-3.006,-0.444,-5.589,6.95,47.02,-15.49,-5.742,0.085,-3.531,1.99,136.82,-1.79,4.447,0.36,4.812,15.46,196.59,-17.31,7.472,4.285,34.702,7.89,349.03,3.64,27.662,343.185,-27.756,44.99,419.242,56.069
20190930-1247-FRANKFURT_2-01-88,Barani C,9.775,4.782,56.925,-20.83,-76.31,23.13,-5.784,2.127,2.807,-60.42,-284.03,99.35,-6.628,-0.509,-2.287,-44.06,-298.29,-10.45,-17.266,2.552,-3.031,-66.82,-406.82,18.29,-18.575,2.286,-6.727,-76.95,-507.57,17.16,-16.211,1.529,-12.844,-66.44,-503.98,30.94,-6.288,2.512,-7.573,-40.35,-325.98,135.63,-4.819,0.861,-6.358,-21.49,-96.68,193.67,-2.656,1.772,-7.597,-37.58,23.25,172.97,-3.431,7.187,-11.459,6.2,49.06,194.98,-8.055,-4.762,5.147,-54.21,9.37,149.24,-4.523,1.385,-5.897,-101.05,-45.26,160.74,-1.693,-1.289,-6.58,-120.96,-9.86,183.85,-1.862,-1.411,-5.314,-92.6,48.63,195.42,-1.587,-2.21,-4.568,-60.9,69.3,188.22,-2.323,-2.356,-4.197,-43.42,98.26,140.2,-2.138,-1.705,-4.955,-43.17,111.32,99.98,-3.635,-1.658,-3.527,-45.47,111.18,95.53,-1.072,-1.175,2.374,-43.65,195.87,46.87,11.63,2.099,39.21,-17.86,228.83,62.96,-91.429,-131.234,188.133,95.999,318.435,195.76
20191007-1159-FRANKFURT_1-01-189,Barani B,20.656,-0.075,55.564,2.58,-260.19,-11.2,-16.567,-2.416,4.406,28.34,-473.46,-13.95,-19.782,-0.424,-4.665,40.71,-527.42,43.24,-8.557,-0.999,-13.123,-6.5,-402.11,57.75,2.878,-4.302,-5.557,-62.0,-347.8,-20.33,-4.191,0.553,-0.484,-21.46,-181.21,-8.13,-7.097,3.895,-5.025,37.85,-79.26,102.55,-10.309,8.433,-4.041,127.49,-56.79,301.75,-9.364,2.626,-4.071,121.76,-24.69,457.04,-8.397,-2.431,-5.839,57.77,19.22,474.33,-4.818,-3.722,-5.661,38.57,33.62,405.39,-4.104,-5.208,-5.229,22.44,96.61,257.12,-3.516,-2.528,-5.073,14.09,116.93,135.85,-4.349,-1.305,-4.752,9.37,159.24,71.34,-4.522,-0.701,-5.77,7.79,231.34,31.92,-6.896,-1.509,-7.726,-37.15,273.35,12.95,-11.185,-0.553,-3.507,-46.5,311.77,20.14,-10.758,-1.593,2.299,-6.37,340.3,56.36,-2.001,-4.127,8.104,45.3,371.32,-6.88,6.951,-0.226,43.769,-51.62,255.19,-104.47,22.636,-11.292,170.358,67.271,358.93,204.996
0115-MORITZ-03-57,Salto C,14.98,-2.935,48.54,-2.14,162.18,-14.91,-3.047,-0.989,-1.855,10.0,-49.43,13.69,-8.241,-0.877,-3.645,9.83,-111.76,-2.61,-1.4,-0.675,-9.971,-25.27,184.33,-3.24,-4.654,0.668,-13.896,-54.45,547.91,50.56,-11.5,-0.757,-8.557,-22.7,493.79,42.19,-18.185,-0.268,-23.118,-3.17,381.73,14.33,-8.686,-2.432,0.117,-10.4,258.98,6.14,-1.783,-0.245,-1.953,3.32,166.01,6.27,-1.515,-0.383,-3.437,5.71,164.86,8.53,-1.433,-0.518,-3.355,3.24,167.06,8.65,-1.25,-0.712,-2.949,1.78,151.95,4.52,-1.55,-0.614,-2.981,-0.53,146.23,0.97,-1.463,-0.628,-2.846,-0.05,143.62,1.06,-1.251,-0.73,-2.216,-2.45,135.34,-3.08,-1.129,-0.402,-1.599,3.38,90.64,3.62,-1.879,-0.514,-2.727,-3.41,41.8,-4.79,-3.185,-0.816,-2.268,-8.59,-10.02,9.88,-3.705,-1.776,1.287,0.29,73.32,37.65,25.748,-2.169,27.211,15.11,261.68,-19.7,-7.878,343.542,15.007,22.678,382.112,31.571
20191007-1159-FRANKFURT_1-01-306,Salto A,-2.886,-1.979,43.715,-17.27,361.17,-1.68,-5.888,-1.729,-3.483,21.13,222.01,-4.9,9.313,1.738,1.336,39.11,186.83,-9.99,2.702,-0.36,-7.471,30.94,154.46,22.22,1.745,-1.391,-8.609,-1.67,170.45,1.14,-0.315,-1.107,-8.825,-10.06,208.37,-25.03,-1.203,-0.743,-7.082,-3.72,215.78,-7.93,-0.973,-0.648,-7.368,17.8,215.37,7.78,-1.265,-1.134,-7.183,14.13,220.92,2.29,-2.519,-1.139,-6.669,11.16,218.59,-0.15,-1.782,-0.997,-6.724,5.66,198.75,4.86,-2.351,-1.409,-6.532,-0.28,177.42,-6.52,-3.398,-0.634,-6.835,4.38,160.86,-17.97,-4.597,-0.18,-5.447,-0.0,148.6,-22.96,-5.271,-0.709,-4.429,-2.4,144.68,-11.54,-5.368,-0.373,-3.038,3.67,167.85,8.08,-4.336,0.163,-2.082,8.59,212.2,0.83,-3.744,-0.378,-0.699,7.52,244.62,-11.33,-0.804,-0.801,1.646,-0.71,301.29,-13.58,11.9,0.693,48.811,-1.96,143.02,13.03,9.77,337.336,-11.405,21.518,338.961,31.527
0609-1-01-649,Bauchsprung,3.124,-3.796,53.556,-0.66,46.2,-7.24,-0.522,-1.495,9.413,2.52,-34.86,-16.22,3.25,0.977,-1.069,-4.55,-63.67,-3.95,-0.637,0.118,0.335,1.46,-33.69,3.49,-0.261,-0.122,-0.031,-4.73,-40.99,0.85,-0.442,-0.164,0.256,-6.38,-51.22,-5.98,-0.486,-0.169,0.458,-0.62,-72.06,-12.92,-0.556,-0.017,0.832,17.87,-92.92,-13.98,-0.544,-0.019,-0.241,5.83,-115.07,-14.73,-1.195,-0.021,-0.069,-4.87,-95.15,9.25,-1.771,-0.03,-0.679,5.25,-104.35,18.51,-0.747,-0.189,-1.097,-11.18,-72.99,23.25,0.187,0.087,-1.438,-13.26,-72.14,4.31,1.325,0.31,-1.017,-1.46,-60.17,5.84,1.898,-1.121,-0.679,24.13,-43.33,12.56,0.098,-1.073,-1.495,24.67,-21.13,-7.7,-2.352,-0.054,-1.606,-4.42,31.43,11.27,-0.347,-1.34,-1.611,-16.21,79.37,-11.56,5.325,0.22,2.115,0.01,233.93,-19.02,45.854,0.598,30.89,-16.21,60.43,-73.57,0.233,-42.446,-7.222,18.309,127.442,33.993
0115-JANEIKE-01-121,Salto B,13.32,1.902,54.812,21.89,217.08,-62.5,-3.603,0.833,8.19,33.15,131.18,-35.01,0.526,-0.318,1.734,6.8,-127.71,-65.0,-7.417,0.285,-9.151,-24.7,-181.61,3.89,-8.375,0.362,-4.308,-28.63,-103.81,5.09,6.391,-1.212,-1.722,-32.91,39.63,-43.09,-0.865,-2.33,-15.896,-50.32,391.03,-54.07,-15.157,-0.584,-15.95,-42.77,536.65,-5.17,-24.775,-0.406,-13.914,-11.24,607.51,55.2,-25.195,-1.356,-7.901,19.51,558.35,9.84,-10.318,-0.023,1.501,47.6,373.82,-8.19,-2.471,0.081,1.366,24.77,215.18,-35.06,-0.812,0.195,-0.41,18.37,135.68,-23.38,-2.112,0.148,-0.52,24.12,83.33,-15.31,-1.941,-0.609,-3.099,24.47,21.7,-5.54,-1.316,-0.534,-5.675,4.54,16.06,1.65,-0.002,-0.602,-3.909,-9.61,43.19,-0.59,3.955,-0.323,-0.622,-0.47,85.94,13.48,3.593,-4.032,-6.885,23.57,257.66,14.8,21.187,-1.224,25.808,32.71,315.57,-44.47,11.9,342.048,-24.249,50.112,413.815,62.695
0115-MORITZ-03-58,Voll- ein- Rudi- aus B,4.233,1.576,51.137,38.83,-263.41,-24.39,-14.5,-3.465,-16.458,75.59,-555.07,-76.5,-18.622,-7.49,-12.286,4.74,-476.01,-189.16,-21.958,-15.721,-10.38,-304.4,-267.8,-664.54,-28.467,-4.007,-13.703,-448.54,198.26,-912.1,-25.938,2.266,8.268,-715.69,179.16,-639.98,-30.031,31.415,-13.325,-690.34,-340.79,-295.19,-22.768,16.919,-39.356,-411.25,-626.83,-171.1,-2.354,-1.067,-20.774,-383.25,-294.62,-311.48,-30.826,-29.62,-7.203,-506.89,53.22,-814.08,-50.159,-17.292,5.011,-543.07,290.59,-794.08,-25.154,11.246,24.528,-843.26,41.33,-510.65,-28.681,22.071,-9.621,-649.88,-416.09,-398.65,-28.892,3.98,-25.438,-270.96,-407.19,-684.09,-27.957,5.032,-22.645,-54.8,-58.35,-761.17,-13.789,5.429,-14.422,-24.64,232.37,-422.1,-11.167,-1.949,-14.121,-59.71,230.21,-247.92,-16.08,-2.342,-15.171,-59.98,273.05,-54.01,-18.2,-0.841,-6.465,-34.53,355.31,17.11,2.564,-3.829,30.251,37.96,485.84,-15.13,-549.865,-126.411,-744.918,589.217,605.469,767.432
0609-4-01-372,Fliffis B,10.105,7.59,43.113,18.1,-361.88,111.92,-28.282,-3.634,-13.211,-75.97,-647.98,49.13,-41.176,2.435,-0.089,-67.23,-701.05,41.43,-42.771,1.36,-6.173,-26.65,-688.9,55.21,-33.916,0.402,-2.775,-35.52,-499.87,54.34,-23.223,1.129,-10.028,21.88,-299.4,50.71,-16.49,6.286,-12.149,31.67,-141.78,217.38,-14.427,6.123,-11.692,-19.12,-127.46,345.36,-14.692,2.621,-19.774,-133.31,-79.49,446.22,-14.276,-1.053,-23.325,-206.47,104.91,445.85,-14.06,-3.999,-20.411,-147.47,271.09,370.59,-12.469,-3.724,-15.475,-72.91,314.92,238.76,-10.881,-2.875,-13.775,-22.1,299.6,140.05,-10.648,-1.115,-11.735,0.82,297.49,93.49,-10.11,1.017,-8.846,-1.35,307.83,29.87,-9.023,0.605,-8.937,23.17,254.62,40.62,-9.127,-0.742,-7.731,22.1,205.17,35.33,-10.833,-0.777,-8.397,22.24,254.87,2.3,-8.991,0.666,-5.04,22.32,337.68,-15.14,7.916,-0.443,30.562,15.6,394.21,-30.37,-57.597,-44.545,249.708,94.478,626.008,262.178
20191007-1150-FRANKFURT_2-01-214,Fliffis C,11.44,-0.001,56.136,-87.39,-379.09,25.6,-31.915,4.808,0.112,-131.82,-582.56,20.54,-31.373,4.212,-11.697,-109.6,-640.63,26.46,-36.73,4.799,-7.847,-121.5,-662.4,22.53,-42.829,5.127,-9.62,-121.67,-606.11,8.1,-49.258,5.782,-9.689,-90.85,-580.72,-0.85,-49.895,4.123,-12.246,-80.42,-654.4,-65.71,-57.416,5.077,-17.06,-34.05,-649.61,-48.4,-59.177,2.825,-23.491,-3.74,-680.96,-3.87,-53.27,4.182,-29.234,-41.17,-663.16,69.26,-38.334,12.034,-31.023,-84.21,-550.38,214.98,-20.614,6.073,-27.347,-103.62,-234.83,410.48,-7.487,5.419,-24.844,-164.4,-36.74,454.66,-12.133,5.33,-22.328,-58.2,-33.33,469.82,-4.99,-6.013,-15.014,-62.51,96.2,389.71,-10.083,-4.083,-15.168,-14.5,137.72,293.65,-13.282,-4.012,-13.57,-34.96,209.31,110.79,-13.072,-0.398,-4.915,-17.7,306.56,87.49,-6.513,-5.187,1.992,74.35,361.47,122.28,12.313,-4.263,33.42,59.51,354.91,-5.91,-93.13,-419.396,189.693,117.027,655.991,219.76
20191008-1207-FRANKFURT_2-01-91,Barani A,6.11,5.725,54.662,-31.31,-242.95,109.89,-6.071,2.176,-14.292,-133.68,-281.2,114.95,-4.425,0.434,-2.576,-99.38,-150.82,95.26,-7.185,1.071,-6.002,-54.23,-127.3,57.48,-4.931,-0.037,-5.799,-55.51,-135.77,27.7,-2.806,0.565,-6.406,-53.03,-168.11,59.49,-3.086,0.261,-7.514,-87.6,-190.44,87.36,-3.096,1.427,-9.784,-126.18,-154.65,163.36,-1.958,0.617,-9.57,-156.13,-107.23,229.31,-2.422,-0.76,-9.398,-160.86,-50.86,256.0,-2.183,-2.45,-8.608,-133.89,6.34,259.42,-3.046,-2.536,-7.776,-108.29,63.13,251.99,-2.936,-3.859,-7.222,-86.19,115.86,237.04,-3.037,-4.206,-7.319,-69.24,138.95,178.31,-4.567,-2.153,-6.741,-44.2,180.77,136.54,-5.212,-2.898,-6.664,-24.6,197.27,112.62,-8.202,-3.033,-7.183,-18.33,213.14,63.98,-10.068,-1.786,-2.635,8.18,303.75,40.54,-2.034,-1.656,5.198,30.36,320.69,16.51,4.271,2.881,34.512,60.49,428.72,-53.72,-102.309,25.945,201.649,126.14,300.898,226.062
20191003-1152-FRANKFURT_1-01-28,Cody C,51.264,4.431,40.219,5.96,-163.61,10.69,3.959,0.085,-18.797,64.14,-161.13,-7.77,-3.953,-1.601,-15.5,7.55,-109.43,40.4,-5.602,-0.469,-13.741,-20.58,103.35,38.77,-18.12,-1.275,-22.713,-48.85,522.88,5.31,-37.377,-2.03,-16.548,-28.61,690.11,16.67,-35.614,-4.398,-13.75,-49.34,653.49,-5.79,-15.593,-1.967,-6.392,-54.93,500.9,-22.44,-8.442,-1.418,-4.017,-48.99,409.2,-16.46,-3.674,-1.126,-6.898,-36.98,300.28,-3.77,-2.796,-1.632,-7.015,-33.77,249.08,-2.98,-2.179,-1.37,-7.501,-31.55,210.33,-6.42,-2.95,-1.678,-5.777,-30.03,177.81,-17.85,-2.926,-1.252,-6.32,-23.39,156.77,-14.92,-2.789,-1.061,-5.688,-16.08,139.3,1.34,-4.778,-1.74,-8.701,-21.59,147.05,1.35,-6.701,-1.182,-7.072,-24.82,166.11,8.67,-6.21,-1.854,-3.053,-32.4,191.68,11.61,-0.261,-2.438,2.279,-47.83,245.56,-23.59,13.094,1.855,38.571,-55.41,242.97,-39.06,-41.946,378.669,-7.891,55.654,450.85,35.057
0609-1-01-167,Von Bauch in Stand,52.444,0.745,33.829,14.47,-25.58,3.45,9.654,0.671,-1.874,26.63,-97.44,-30.79,-5.582,-1.429,-0.112,3.9,2.85,16.18,1.525,-0.432,-1.502,-18.29,16.27,2.22,-0.899,-0.199,0.124,-13.95,12.22,10.54,-0.897,-0.471,0.076,-22.34,7.59,1.43,0.352,-0.204,-1.568,-12.34,4.49,1.5,0.222,0.154,0.435,4.93,11.07,11.44,-0.031,-0.992,0.602,4.6,16.09,19.82,-0.091,-0.288,-0.332,13.15,21.49,18.27,0.164,-0.045,-1.016,20.99,26.28,19.87,0.419,-0.311,-0.863,13.2,30.77,13.6,0.052,-0.847,-0.586,7.32,27.86,-5.77,0.439,-0.042,-0.614,14.64,38.08,-19.76,-0.439,-0.356,-0.273,10.23,26.64,-15.86,-1.251,-0.231,-0.487,10.08,16.96,-17.09,-2.412,0.273,-0.019,-0.37,13.23,3.26,-3.786,-0.325,1.336,-6.49,-4.83,23.77,6.429,-2.009,3.895,-0.7,25.25,22.42,23.817,-1.173,31.14,15.85,188.77,2.59,7.437,37.292,8.631,24.997,66.109,33.847
0609-1-01-900,Bauchsprung,4.324,0.351,52.568,16.29,29.92,1.52,-0.199,-0.301,10.75,-16.89,-15.53,-14.23,3.452,0.31,0.177,2.66,-55.57,5.99,-0.556,1.054,0.337,-18.65,-13.59,19.64,-1.284,-0.555,0.029,-23.38,-80.66,-4.48,-0.933,-0.29,-0.357,-15.61,-101.5,-6.36,-0.942,-0.027,-0.952,-15.61,-116.86,-11.5,-0.982,-0.069,-1.226,-9.53,-116.21,-9.2,-0.905,-0.303,-0.279,-7.09,-107.17,-4.48,-1.249,-0.244,0.381,3.84,-109.81,-21.71,-0.001,-0.021,-0.391,10.26,-84.28,-21.52,1.371,0.085,0.018,9.75,-67.95,-7.75,1.031,-0.398,-0.57,4.08,-28.06,-3.87,1.18,0.286,-0.035,-6.32,-4.97,3.85,-0.04,-0.237,-1.171,16.95,-25.09,0.45,-0.366,-0.397,-2.229,24.7,-20.61,2.2,-1.232,-0.862,-1.722,-1.21,13.72,-1.4,-0.344,-0.915,-0.708,-11.9,89.44,-12.01,9.811,1.054,-1.22,-4.82,247.28,13.29,40.696,-0.099,33.389,1.15,61.08,-31.94,-5.656,-37.102,-8.543,26.796,125.806,29.983
0827-BK2-02-22,Salto C,9.14,4.179,55.446,29.12,154.21,-45.81,0.568,-0.474,1.484,28.4,6.23,-32.68,-5.486,0.274,-3.082,-3.11,-56.56,-10.47,-4.706,0.08,-8.377,-31.95,-23.4,1.34,0.606,-0.828,-10.429,-23.28,187.06,-88.74,-21.167,-0.802,-12.933,-25.17,595.18,-92.56,-20.374,0.348,-10.605,-20.09,606.27,-40.68,-22.706,-0.837,-10.005,-3.25,548.87,-3.52,-14.05,-0.43,-2.421,22.56,377.65,-29.0,-1.896,1.114,0.916,14.51,210.32,-10.85,-1.155,0.372,-0.683,13.65,141.99,-17.16,-1.836,0.105,-1.313,11.3,118.41,-33.69,-1.027,0.693,-1.884,20.47,105.74,-25.11,-0.509,0.29,-2.326,12.8,107.5,-22.26,-0.647,0.66,-2.658,8.35,100.37,-34.84,-1.113,0.386,-2.854,10.89,94.22,-42.89,-2.658,-0.127,-2.329,3.86,75.18,-36.32,-4.69,0.2,-0.46,1.56,63.62,-14.78,-1.449,1.074,3.698,-26.07,126.79,19.1,13.479,1.643,41.191,6.37,140.07,1.17,4.079,341.868,-51.268,30.802,361.52,60.863
20191007-1524-FRANKFURT_1-01-114,Doppelsalto B,9.159,7.856,53.401,-21.48,305.38,-78.01,1.913,1.635,3.805,19.25,146.56,-44.48,-1.114,-3.817,-8.051,10.79,19.63,38.6,-6.398,-0.82,-8.574,-22.24,0.16,-23.38,-5.944,-0.194,-8.961,-28.0,89.68,-6.66,-4.882,-0.635,-7.539,4.16,299.71,-26.76,-5.938,0.221,-9.158,31.03,455.75,13.23,-10.724,0.087,-11.506,46.91,474.73,8.26,-18.602,-0.254,-17.329,80.91,460.69,-12.23,-7.445,-0.2,7.667,71.38,305.67,-52.37,-4.393,-0.516,-2.582,31.99,226.27,-39.0,-0.924,-0.799,-3.518,7.84,150.73,-20.73,-1.995,-1.249,-4.045,8.06,160.7,-18.07,-2.015,-1.214,-3.645,9.1,117.87,-23.57,-2.611,-0.803,-4.658,0.21,118.36,-26.97,-3.381,-0.912,-3.874,1.39,116.32,-6.21,-3.975,-0.493,-4.241,12.06,124.04,-8.17,-6.41,-0.281,-2.141,4.13,143.65,12.35,4.75,-0.381,5.459,36.37,172.75,-28.99,14.063,3.994,31.081,63.9,298.89,-29.71,30.341,330.816,-30.893,49.169,344.957,59.562
0827-BK1-01-81,Salto B,16.491,-2.748,45.784,23.36,158.78,-11.21,-3.471,0.538,3.454,16.32,-11.84,-9.01,-9.532,-0.001,-3.488,8.76,-120.64,21.34,-4.736,-0.394,-4.407,6.97,-72.93,8.6,4.446,0.202,-1.406,-31.81,110.02,-4.82,-0.799,1.544,-14.461,-33.6,448.31,33.46,-13.843,-0.026,-17.923,-14.0,547.37,60.2,-27.488,1.229,-25.49,-18.78,609.85,58.4,-21.57,-1.298,7.176,-5.62,428.84,61.8,-5.012,0.176,2.135,-6.49,231.72,53.54,-0.857,-0.333,-3.55,4.44,144.72,34.23,-1.896,0.504,-2.972,24.18,139.23,38.58,-2.213,0.516,-2.414,45.05,147.15,44.3,-1.709,0.06,-2.591,43.79,130.64,24.47,-1.68,0.856,-2.321,38.46,108.88,20.47,-2.259,0.371,-2.675,29.38,88.19,11.06,-3.455,0.49,-2.092,30.13,72.72,-4.32,-5.573,0.239,0.979,26.72,68.5,-6.6,0.803,1.122,2.604,24.02,112.67,-6.1,22.816,-2.523,28.391,50.9,247.99,13.93,24.599,349.777,41.215,46.726,392.25,59.313
0609-1-01-594,Salto C,11.254,-0.272,53.041,33.68,156.33,-17.02,-0.415,0.966,0.183,1.97,66.14,2.01,-3.892,-0.859,-5.591,3.99,-34.69,-20.81,-5.992,-0.727,-8.34,-7.87,-21.66,-39.45,2.213,-0.37,-10.374,-23.86,307.02,-53.16,-9.659,0.184,-14.743,-1.35,617.76,3.17,-17.222,1.501,-14.907,23.03,537.4,14.63,-17.9,-1.011,-12.489,8.54,468.76,-23.43,-7.859,0.985,1.837,19.61,373.45,-10.43,-2.429,-1.106,-0.989,23.12,223.26,-12.86,0.036,-0.743,-2.178,2.15,152.53,-25.07,-1.093,-0.16,-1.402,11.06,113.63,-6.07,-0.761,-0.018,-2.661,10.83,76.25,-9.22,-0.139,0.036,-3.111,7.53,39.37,-13.17,-0.45,-0.354,-2.831,2.95,41.93,-0.02,-0.651,-0.665,-4.935,7.04,93.47,-12.32,-1.787,-0.799,-3.795,8.7,123.83,-28.03,-4.142,0.015,-2.178,-28.02,115.68,16.95,-1.552,-0.466,2.954,-1.84,187.3,29.46,10.142,-1.4,36.06,10.8,316.94,-9.54,13.268,365.329,-21.575,29.086,383.653,43.817
0827-BK2-01-57,Salto B,9.695,1.694,54.331,37.47,185.91,8.16,-1.203,1.642,0.038,5.57,38.26,-8.33,-7.886,0.088,-3.5,-10.63,-162.23,-4.34,-10.965,0.26,-5.384,-3.43,-186.88,-0.0,7.314,0.843,-2.903,-16.4,-58.14,-4.91,-5.188,-1.12,-14.064,2.53,424.71,-38.09,-16.082,1.912,-11.113,-5.07,611.58,-6.79,-19.934,2.115,-14.472,12.94,580.06,-9.01,-18.423,0.885,-10.886,-5.45,515.5,21.36,-9.371,1.318,5.239,1.73,290.28,12.62,-0.771,1.051,-0.973,-10.36,117.41,-23.68,-0.04,0.402,-3.635,7.65,98.05,-14.28,-1.484,0.814,-2.899,4.46,96.27,-14.67,-1.92,0.532,-2.047,-1.15,89.1,-18.84,-1.648,0.903,-2.535,-8.45,85.25,-17.44,-1.742,0.469,-2.597,-8.04,80.45,9.33,-1.567,0.692,-3.195,2.38,95.58,-4.85,-3.759,0.293,-3.757,-4.88,116.28,-27.4,-4.945,0.582,-0.364,-2.35,163.94,-18.73,10.705,-0.3,41.667,-12.27,226.84,-2.67,-0.769,342.338,-15.517,19.795,431.158,35.704
0609-1-01-631,Bauchsprung,6.06,-1.459,49.367,4.45,50.62,12.92,-0.705,0.285,7.035,-6.78,-26.83,15.81,2.759,0.155,0.105,-13.63,-51.34,8.59,-0.627,0.579,-0.068,-12.52,-21.26,13.7,-0.454,0.083,0.477,-10.5,-48.01,2.17,-0.238,0.563,0.384,-14.23,-83.36,1.68,-0.629,-0.205,-0.408,-15.14,-102.13,-19.03,-1.01,-0.296,0.029,-9.68,-100.24,-13.32,-1.069,-0.06,0.078,-0.76,-101.65,9.46,-0.755,-0.015,-0.134,12.14,-78.92,15.07,-0.511,0.119,-0.565,10.5,-77.21,1.02,0.198,-0.806,-0.941,5.15,-67.66,-11.19,0.186,-0.418,-0.547,0.06,-48.12,-18.98,0.491,0.227,-0.827,9.32,-46.82,-20.61,1.779,-1.004,-0.44,-0.89,-40.36,10.84,-1.038,-1.31,-1.678,-7.48,-43.36,-5.28,-2.362,0.037,-2.567,-33.57,17.88,-11.78,-0.962,-0.784,-2.106,-24.85,81.01,5.87,5.949,2.075,5.447,-19.73,277.9,-59.78,43.373,7.143,36.042,9.62,29.61,-119.09,-10.027,-35.318,-16.898,23.098,125.716,40.113
0609-1-01-618,Doppelsalto B,8.014,7.852,48.658,12.6,339.76,-107.59,-1.746,0.964,-4.521,-57.03,175.6,-60.18,-4.471,0.4,-2.597,-9.66,82.88,11.14,-11.81,-0.054,-14.681,-23.9,-75.28,-6.94,-16.886,-0.761,-7.379,-38.78,135.27,-38.62,-21.502,-1.201,-3.749,-77.1,477.33,44.27,-33.848,-5.33,-2.197,-53.75,678.67,-21.66,-35.949,-5.815,-4.449,-85.33,681.39,19.83,-34.94,-4.51,-9.391,-71.81,678.28,13.2,-34.136,-2.641,-23.76,-21.86,799.56,22.06,-34.816,-1.718,-31.857,24.81,807.32,-2.71,-32.111,-0.382,-32.859,51.55,681.22,-17.89,-29.14,-0.669,-17.662,69.63,620.77,-45.6,-9.52,0.763,-6.46,35.86,427.83,-60.2,-3.182,-0.724,-9.629,24.79,240.4,-27.39,-3.988,-1.177,-12.409,21.88,174.0,-56.88,-5.869,-0.792,-11.006,-12.7,181.56,-54.6,-8.881,-1.245,-12.164,-20.45,238.56,1.11,-9.011,-2.302,-6.611,-23.05,298.21,-6.08,9.189,-0.152,33.878,8.3,313.37,-22.76,-15.879,708.939,-36.821,72.793,726.787,74.814
0827-BK2-01-98,Salto A,8.368,-3.597,53.207,14.18,216.93,1.01,0.687,2.747,-1.511,34.41,110.04,14.78,2.325,0.203,0.51,9.2,40.46,-8.23,-0.393,1.044,-6.052,15.32,111.32,-13.77,-3.778,0.053,-6.791,9.35,166.12,-41.71,-4.472,0.104,-5.333,19.87,225.36,-36.6,-4.509,1.522,-3.816,-32.3,237.57,-25.67,-3.022,-0.108,-4.342,-11.55,217.99,-6.18,-2.987,1.688,-5.099,-9.59,214.6,0.27,-3.38,0.888,-4.826,-2.41,215.28,10.85,-2.969,1.295,-4.53,-10.86,209.37,2.27,-2.824,0.773,-4.289,11.82,194.77,-2.8,-2.683,1.035,-4.367,22.46,173.45,-11.75,-2.801,0.572,-4.499,9.84,162.05,-21.0,-2.744,1.061,-4.006,-6.5,157.43,-18.93,-2.896,0.339,-4.279,-14.77,144.02,-11.45,-3.481,0.779,-4.094,-2.13,135.13,-3.38,-5.14,0.389,-4.36,-6.31,116.32,-6.0,-6.205,0.359,-1.146,-8.7,153.87,5.09,7.465,-1.688,43.532,-9.3,231.87,-22.12,3.547,338.743,-17.421,25.742,338.826,30.517
20191008-1207-FRANKFURT_2-01-60,Salto A,3.851,14.672,43.309,-3.43,238.85,-105.53,-4.708,-0.509,-5.236,-9.3,206.64,-44.03,-0.145,-1.95,0.079,8.97,125.82,-4.49,1.371,-1.745,-3.205,-23.13,2.85,-2.88,0.621,-1.917,-9.567,-9.99,42.07,-8.17,-4.577,-0.815,-9.23,0.51,166.49,3.62,-7.414,-0.209,-8.994,14.35,273.0,26.83,-8.057,-1.504,-6.363,24.28,344.89,-61.11,-6.215,-1.68,-3.764,13.45,279.39,-51.64,-4.396,0.299,-3.697,27.08,231.63,-49.34,-3.339,-0.388,-3.648,26.74,187.76,-44.76,-3.316,-1.016,-3.678,31.9,165.6,-38.05,-1.989,-2.113,-5.344,7.17,162.98,-47.23,-3.138,-1.545,-5.146,-0.42,151.68,-61.03,-4.531,-0.928,-5.901,-7.01,161.28,-36.33,-4.803,-0.435,-5.751,-16.06,172.65,-1.06,-4.891,-2.288,-4.796,-9.16,182.58,23.64,-6.605,-1.627,-4.294,7.27,257.41,12.06,-2.363,-3.644,-1.795,50.86,358.63,-26.53,1.864,4.291,36.861,91.28,375.91,-192.74,19.21,339.345,-75.377,36.234,349.09,89.85
0115-JANEIKE-01-21,Salto B,9.192,1.574,51.153,55.69,300.23,-53.59,-2.618,0.062,5.163,26.61,122.15,-66.99,-0.717,0.604,3.1,7.18,-43.99,-45.19,-8.666,0.056,-8.794,-12.24,-157.23,21.24,-6.204,-1.086,-4.96,-5.88,-62.85,5.76,3.926,-0.875,-1.141,-15.02,169.12,-50.59,4.149,-1.745,-15.927,-48.18,420.33,-53.34,-17.798,-0.19,-14.57,8.12,511.25,22.81,-19.764,0.668,-10.735,46.52,527.96,33.12,-17.138,-0.974,-6.659,30.22,468.88,-43.04,-9.011,-0.328,0.503,53.4,355.6,-40.78,-3.432,-0.48,0.5,37.19,190.99,-53.64,-2.246,1.077,-1.881,37.34,122.68,-22.21,-0.415,-1.469,-3.66,19.97,92.39,-20.52,-0.984,0.245,-3.906,0.47,109.27,-3.63,-1.176,-0.793,-3.066,-7.96,125.72,2.56,-2.388,0.133,-3.612,-15.71,106.8,10.39,-5.987,1.456,-2.196,-31.87,120.85,2.36,-2.325,-1.13,2.059,-2.63,119.25,-10.52,22.665,-0.408,38.142,-1.88,167.63,-7.24,19.451,345.637,-33.141,47.954,393.743,64.208
20191007-1150-FRANKFURT_2-01-110,Salto A,0.656,0.28,41.209,16.08,283.87,-56.45,-9.971,2.155,2.75,12.81,299.98,-22.56,-10.238,-0.529,0.155,33.94,237.65,-2.38,0.213,-0.761,-2.66,21.98,109.98,-13.09,3.862,-0.53,-6.522,4.08,127.5,-6.26,0.923,-0.784,-9.546,0.56,191.22,-4.23,-1.997,-0.871,-9.185,-10.53,249.51,-10.43,-2.404,0.054,-9.042,-1.62,269.95,-10.9,-1.793,-0.607,-8.451,-3.53,272.0,0.02,-0.972,-0.022,-7.919,2.8,241.1,4.29,-2.236,-0.119,-8.0,11.23,204.95,8.02,-3.14,-0.714,-8.068,1.52,162.17,11.47,-3.504,-1.57,-7.561,-2.68,150.76,-10.68,-4.028,0.019,-8.007,2.83,163.1,4.45,-5.047,-0.776,-9.018,6.89,170.53,6.8,-8.923,-1.103,-6.887,1.66,189.0,12.24,-9.929,-0.476,-3.177,-6.29,232.95,34.92,-7.433,-0.29,3.589,25.1,251.12,18.52,3.73,-1.499,2.179,38.66,298.8,19.62,13.548,-1.138,43.553,84.58,315.76,-44.72,19.35,353.164,-11.94,25.739,353.918,33.695
20191008-1207-FRANKFURT_2-01-187,Salto A,-6.533,6.051,48.562,24.76,274.65,-50.04,-3.051,3.489,-0.738,56.44,143.27,-16.92,5.303,-6.599,-2.46,22.97,124.19,-69.96,3.255,-0.553,-5.439,0.15,-10.24,-19.41,-0.752,-1.314,-7.268,6.58,76.44,-11.02,-3.566,-0.582,-9.237,27.98,179.08,-6.03,-5.885,-0.655,-7.984,39.45,260.17,-21.85,-5.178,-0.917,-5.218,50.0,247.91,-38.95,-3.757,-0.733,-5.926,38.98,246.8,-42.54,-3.807,-0.03,-5.658,11.52,240.16,-31.92,-3.641,-0.596,-4.532,-1.74,226.24,-10.04,-2.566,-0.534,-5.041,21.67,181.86,16.63,-2.528,-0.943,-6.271,30.79,160.62,16.07,-3.58,-1.149,-5.754,42.84,159.99,-1.51,-4.129,-0.918,-6.715,34.98,181.54,-22.51,-5.583,-0.427,-5.562,26.33,207.91,-32.31,-5.885,0.899,-6.112,35.98,192.56,-20.6,-7.734,0.435,-2.594,56.55,258.93,-29.26,-3.7,-0.415,1.296,55.97,280.95,-31.27,3.423,4.701,29.231,35.65,374.49,36.76,54.503,352.09,-26.502,56.991,355.891,55.553
0609-1-01-812,Bauchsprung,9.738,-2.59,52.081,-1.64,20.44,4.79,2.031,-0.074,10.021,5.74,-54.77,6.74,1.4,0.386,-0.642,1.2,-44.04,22.24,0.111,-0.109,-0.677,-19.0,-31.81,-7.96,-1.073,-0.079,0.403,-13.07,-66.04,-41.74,-1.082,-0.172,0.128,0.3,-73.27,-27.95,-0.858,-0.221,0.305,-3.72,-62.92,-10.74,-1.524,0.095,-0.02,8.6,-81.13,8.9,-0.821,-0.046,-0.808,32.81,-73.48,19.71,-0.274,-0.438,-1.097,9.71,-89.99,15.29,0.032,-0.278,-1.156,-3.82,-75.27,13.29,0.404,-0.223,-0.435,2.14,-55.8,-3.2,-0.117,-0.585,-0.851,2.83,-45.99,-9.85,0.1,-0.339,-0.205,1.77,-52.46,-13.28,0.121,-0.459,-1.088,5.66,-36.58,-16.2,-0.007,-0.352,-1.638,-4.33,-26.84,5.24,-0.889,-0.386,-2.22,-25.34,15.77,6.32,-0.475,-0.771,-2.431,-27.71,94.22,12.77,6.552,1.387,0.79,-14.95,184.49,-22.04,41.514,3.126,29.821,13.38,98.49,-1.22,-3.442,-33.327,-4.482,19.885,114.184,32.6
0827-BK2-02-147,Salto A,4.22,1.088,50.38,5.39,221.07,-17.24,-2.79,0.257,4.34,-1.78,209.79,-20.19,-1.359,-1.959,-1.098,25.5,207.4,-56.07,2.476,2.364,-2.426,10.09,142.17,-51.28,0.754,-0.353,-5.238,-5.79,115.1,-28.47,-1.724,0.706,-4.745,6.96,161.42,-32.5,-2.538,0.723,-6.995,1.84,177.09,-26.39,-2.336,0.473,-5.302,4.19,228.54,-12.25,-2.463,0.868,-5.194,-0.21,219.04,-8.73,-2.172,0.665,-6.161,16.06,205.99,-5.91,-2.517,0.074,-6.089,22.6,223.77,-4.53,-3.21,0.507,-5.637,16.51,212.82,-25.75,-3.115,0.213,-4.948,6.46,186.84,-25.06,-3.43,0.469,-5.087,8.14,163.83,-29.31,-3.352,0.231,-5.357,9.32,150.03,-33.14,-3.134,0.749,-6.148,15.97,160.04,-49.95,-5.213,0.667,-5.588,22.36,170.21,-33.86,-7.067,0.904,-3.701,-9.57,180.35,-6.35,-6.769,0.065,1.475,6.9,226.32,-7.38,11.521,1.086,40.037,13.51,222.83,-2.22,17.214,328.435,-39.139,23.453,328.435,44.154
0609-1-01-749,Bauchsprung,7.709,0.506,55.103,8.29,42.87,20.65,0.539,-0.491,10.57,-6.63,-18.05,-0.56,3.131,-0.341,0.616,-5.95,-61.5,2.37,-0.907,0.878,-0.016,-3.74,-24.25,-8.33,0.113,-0.543,-0.317,1.59,-49.31,-18.34,0.136,0.024,-0.259,9.71,-51.63,-11.03,-0.328,-0.061,0.156,1.36,-54.77,-6.57,-0.309,-0.198,-0.466,-2.39,-64.11,3.58,-0.064,-0.07,0.121,4.34,-61.75,7.71,-0.361,-0.315,0.198,13.42,-69.51,5.27,-1.096,-0.3,0.32,8.73,-77.94,-9.26,-1.642,-0.03,-0.088,-4.01,-96.86,10.61,-1.305,-0.232,-0.982,-18.58,-102.98,9.24,0.329,-0.089,-1.734,-10.33,-73.3,-3.77,1.301,1.193,-1.801,17.03,-57.42,-0.62,0.38,-1.253,-0.281,22.29,-56.42,5.94,-1.416,0.22,-1.736,16.23,-21.31,16.88,-0.944,-1.455,-2.475,6.01,101.33,0.64,3.927,0.536,2.041,-6.82,204.35,-17.5,42.857,-0.78,33.233,-24.65,58.95,-29.65,0.689,-39.298,-2.323,20.367,117.414,26.832
0115-CHARI-05-167,1 3/4 Salto vw C,12.918,4.94,51.528,20.2,-247.33,28.32,-9.227,-3.109,-5.308,-0.81,-373.99,22.31,-19.18,0.794,1.457,-14.15,-440.23,-18.56,-34.522,-0.255,-3.233,7.8,-627.01,-33.26,-42.807,1.235,-16.935,11.11,-667.35,-6.47,-47.334,-0.347,-18.296,23.2,-716.0,-1.13,-39.996,0.569,-21.254,16.4,-705.33,43.13,-16.642,-0.262,-16.121,-8.17,-332.11,-8.81,-9.223,0.454,-11.664,-6.4,-82.14,-9.52,-0.218,-0.413,-16.391,-14.02,13.74,-33.08,2.819,1.808,0.232,-4.24,-102.63,-8.28,-0.338,0.547,-1.015,-1.33,-245.21,-3.94,-1.093,0.778,-3.213,1.21,-285.68,8.36,-2.596,-0.004,-3.243,-2.76,-309.02,9.2,-4.832,0.586,-3.361,-1.15,-323.98,-2.12,-6.184,0.264,-5.295,-10.21,-343.34,-4.44,-7.463,0.196,-6.417,-11.44,-357.63,-4.63,-6.541,0.494,-5.953,0.74,-361.75,-25.68,-17.604,2.456,-6.891,6.18,-431.07,15.39,-27.63,1.483,17.229,15.76,-222.36,3.72,10.192,-662.33,25.585,26.978,673.328,49.201
0609-1-01-679,Von Bauch in Stand,53.377,3.298,34.936,13.24,-33.01,-2.11,11.84,0.406,-0.05,31.86,-125.46,42.14,-3.661,1.586,-0.632,8.72,-19.39,22.19,-0.436,-0.083,-2.853,11.97,-5.92,15.39,0.182,0.21,0.224,20.89,-9.14,76.39,-1.554,0.289,-0.133,25.33,-22.09,73.81,-0.243,-0.359,0.046,12.54,0.65,0.86,0.225,-0.419,0.588,-0.58,17.22,-49.62,0.94,0.724,-0.849,11.39,30.69,-60.93,2.618,0.199,-0.495,6.97,17.11,-37.87,0.939,1.231,-0.162,-31.08,-13.35,31.56,-1.844,-0.694,0.115,-47.86,-3.22,60.2,-0.746,-2.22,-0.432,-19.89,9.91,21.32,0.7,-2.349,-0.152,-12.0,27.42,-27.13,1.799,-0.977,-1.11,2.93,59.63,-2.23,0.263,2.909,0.005,17.8,53.0,50.22,-1.085,0.17,-5.803,41.74,48.75,39.44,-6.954,1.537,-0.271,33.87,50.91,-18.13,6.991,-3.902,11.341,18.45,50.12,-59.78,27.716,0.376,29.542,17.69,187.1,-26.0,14.792,32.995,8.413,35.39,72.783,66.86
20191007-1159-FRANKFURT_1-01-400,3/4 Salto vw A,1.651,5.008,45.492,24.65,-28.83,11.64,-0.77,-3.677,-6.789,9.67,-83.33,-7.77,-0.27,-0.952,-3.419,10.54,-5.4,6.04,-1.127,-0.763,-2.305,1.49,30.16,-2.19,0.376,-0.556,-1.048,2.84,20.38,4.92,1.514,-0.231,-0.028,1.68,-10.23,11.64,0.792,-0.463,-0.04,0.19,-67.49,5.76,-0.137,-0.034,-0.334,2.14,-113.43,4.93,0.164,-0.243,-0.478,1.25,-148.37,4.25,0.112,-0.297,-0.341,3.55,-173.68,14.55,-0.718,-0.557,0.253,-1.37,-201.07,22.92,-1.708,-0.653,0.711,9.0,-233.99,23.1,-3.956,-1.124,-0.851,10.19,-312.91,11.23,-7.41,-0.85,-2.352,16.8,-329.36,21.57,-7.54,-1.192,-4.438,16.34,-336.3,12.68,-6.407,-1.114,-5.033,17.49,-346.35,19.09,-6.386,-0.545,-3.947,7.97,-331.02,31.24,-3.611,-1.164,-5.867,-11.87,-242.34,9.43,-4.613,-2.329,-1.169,10.48,-213.6,11.05,-43.826,-2.213,22.107,-2.52,-183.76,-27.44,10.688,-277.224,12.301,17.632,304.22,30.934
0609-4-01-94,Schraubensalto C,6.93,1.511,51.018,50.34,221.12,105.58,0.155,-1.224,0.879,66.56,229.58,133.75,-0.705,3.546,-0.754,82.21,114.84,99.61,-1.533,-0.183,-3.764,110.65,86.58,170.25,-4.916,2.652,-1.155,204.57,77.61,264.25,-9.087,1.461,4.003,282.62,-10.17,378.14,-11.847,-4.877,1.634,268.68,-175.95,453.11,-12.88,-4.728,-2.618,163.4,-213.37,474.81,-13.06,-2.943,-7.974,14.17,-160.76,494.36,-10.485,-3.604,-10.713,-63.36,-46.39,454.38,-8.5,-3.976,-9.106,-76.85,77.44,374.0,-5.136,-4.454,-6.369,-60.76,157.54,270.17,-3.753,-1.451,-5.717,-50.86,202.18,196.31,-3.893,-0.408,-5.684,-24.45,189.66,155.38,-4.102,-1.411,-5.103,-4.41,160.18,96.0,-4.54,-1.058,-4.734,-1.86,151.39,67.09,-5.279,-0.466,-3.935,7.6,147.22,37.95,-6.293,-0.819,-2.725,26.05,159.39,42.12,-1.959,-0.558,1.609,36.77,195.46,17.65,12.425,-0.629,39.423,24.93,271.93,-14.51,99.526,178.582,393.828,152.409,292.879,399.432
0609-1-01-254,Bauchsprung,5.692,-1.561,54.398,-4.56,22.65,16.39,1.324,-2.192,3.799,-5.58,-6.9,-12.81,1.084,2.368,-2.323,-21.3,10.29,-10.51,-0.435,-1.034,0.49,-4.24,6.58,-12.04,0.024,-0.375,0.47,1.82,-28.37,-14.85,0.105,0.027,0.584,0.75,-49.97,-22.76,-0.267,-0.016,0.362,6.6,-62.78,-5.33,-0.192,-0.127,0.035,7.76,-61.4,2.46,-0.398,0.101,0.044,-2.57,-63.61,14.04,-1.027,-0.332,0.537,-9.1,-71.12,6.63,-1.495,-0.749,-0.061,-24.43,-107.74,-19.54,-1.301,-0.202,-0.798,-16.05,-127.38,-47.5,-0.817,0.362,-1.388,4.24,-70.23,-24.71,0.423,0.269,-1.717,5.94,-54.32,-15.7,1.297,0.45,-1.277,24.81,-15.81,29.72,1.052,-0.523,-0.715,43.5,0.58,64.64,-0.871,-1.43,-0.642,35.72,-8.69,5.4,-2.895,-1.004,-1.406,-11.79,30.26,-24.3,2.119,1.558,0.986,-35.5,152.42,-13.77,45.48,2.993,27.647,-22.31,39.06,-21.12,-1.679,-36.572,-12.741,29.958,108.518,50.157
0609-4-01-500,Fliffis B,16.291,0.905,46.277,-35.89,-317.77,77.9,-31.292,-2.614,-16.365,-92.91,-603.59,30.28,-37.79,1.31,3.289,-54.02,-683.44,5.02,-43.337,0.783,-4.73,-4.12,-716.43,-44.65,-42.812,-1.623,-0.932,25.26,-623.86,-9.21,-28.696,-0.74,-6.728,51.92,-508.1,53.53,-16.157,-0.861,-10.804,27.22,-170.44,72.02,-13.842,8.757,-14.241,52.73,-3.83,211.32,-14.47,2.774,-5.158,-78.97,-121.96,335.19,-11.29,-0.578,-19.2,-207.91,-138.5,357.66,-10.719,-1.024,-24.079,-279.43,-25.36,386.13,-11.322,-4.525,-20.573,-241.19,159.54,371.64,-10.285,-4.592,-17.21,-168.81,250.37,283.52,-7.76,-3.598,-13.592,-113.65,300.26,189.04,-6.778,-1.732,-12.914,-64.9,265.5,107.61,-9.036,-1.872,-13.57,-32.79,221.61,55.93,-12.821,-2.035,-11.752,-12.47,231.82,64.88,-15.871,-2.876,-10.577,-1.54,297.61,74.45,-14.445,-1.205,-1.266,-1.17,380.46,14.24,7.717,0.63,36.919,15.66,408.61,-50.56,-111.086,-130.561,229.985,147.666,601.084,258.474
0609-1-01-569,Doppelsalto B,0.313,7.742,48.91,62.95,335.16,-73.78,0.193,-1.246,-5.772,-29.99,149.67,-72.43,-4.087,1.031,1.954,-6.0,55.16,-23.34,-8.588,-3.059,-18.957,-11.98,-137.1,4.84,-11.892,-0.604,-6.163,-31.63,127.82,-46.65,-20.575,-1.511,-4.618,-55.26,471.24,37.97,-34.555,-3.35,-0.698,-64.17,677.32,-12.22,-34.934,-3.52,-2.617,-56.48,669.0,4.35,-34.021,-1.238,-7.056,-29.42,705.29,22.96,-34.258,-1.155,-25.71,-18.06,821.2,-24.07,-38.039,1.247,-29.652,-7.43,822.51,25.49,-32.947,0.29,-30.261,48.68,728.44,0.92,-21.112,1.263,-15.804,69.87,556.88,5.51,-8.913,1.24,-4.388,56.56,366.2,-20.07,-4.21,0.382,-8.579,46.91,239.26,-6.52,-2.954,-0.258,-11.102,42.05,145.42,6.45,-2.66,-1.972,-11.773,19.82,127.27,-28.99,-9.331,0.989,-9.965,5.42,199.82,-19.63,-10.402,2.258,-2.433,43.66,294.66,33.78,11.255,-3.89,40.794,39.55,370.58,-37.05,16.555,705.903,-22.061,72.608,733.206,65.115
20191001-1202-FRANKFURT_2-01-132,Salto A,-9.719,-6.689,51.017,-11.34,-319.89,2.49,4.265,-0.652,7.644,-1.74,-260.3,37.94,1.594,1.551,-1.95,-1.81,-126.35,-50.71,-3.682,-1.813,-4.145,9.67,-57.57,-5.28,-1.412,-0.356,-10.269,-14.5,-130.24,0.36,3.632,-0.989,-6.577,-18.36,-158.21,-1.94,4.327,0.701,-6.335,-2.26,-199.57,-47.72,4.015,-0.353,-6.334,-7.8,-232.15,-27.71,4.128,0.099,-5.839,-5.91,-227.3,-22.53,3.837,-0.412,-5.586,2.39,-208.15,-13.12,4.52,0.193,-5.674,9.85,-201.77,-9.56,4.622,0.537,-5.557,7.71,-204.12,-17.8,5.013,-0.269,-5.565,5.33,-199.19,-19.8,5.862,-0.528,-4.487,9.89,-184.38,-16.87,5.653,-0.608,-4.711,20.25,-171.22,-13.57,6.026,-0.819,-4.326,20.44,-170.28,-2.4,5.214,-0.854,-4.663,16.8,-189.93,8.96,4.83,-0.579,-5.45,7.29,-259.68,16.21,-1.322,1.611,-7.977,3.15,-341.18,-14.1,-21.096,0.676,31.184,26.71,-341.59,-37.76,5.676,-339.278,-24.763,20.87,344.345,49.534
20191008-1157-FRANKFURT_1-01-137,Barani A,12.63,1.017,56.803,38.71,-200.09,-15.06,-8.002,4.506,-0.292,-21.07,-335.92,36.6,-5.821,1.064,-3.734,-12.62,-182.57,83.38,-5.784,1.949,-6.348,-16.9,-75.38,89.71,-4.474,0.298,-5.952,-25.34,-63.45,93.15,-4.455,0.669,-5.789,-123.83,-186.65,142.96,-2.681,1.682,-11.739,-151.05,-216.61,162.75,-2.147,0.964,-9.465,-161.23,-174.4,240.27,-2.451,-0.493,-9.53,-151.2,-96.05,284.21,-3.613,-1.26,-9.067,-117.82,-2.74,309.82,-3.685,-3.208,-8.411,-85.11,100.34,297.04,-3.134,-4.368,-6.857,-75.95,168.52,222.57,-2.347,-3.311,-5.746,-69.15,174.53,141.95,-3.387,-1.934,-6.394,-43.59,159.95,84.08,-4.631,-1.664,-5.952,-18.35,166.75,40.55,-5.338,-2.148,-5.042,-9.9,175.41,14.57,-5.179,-1.665,-6.119,-34.52,205.68,-1.13,-6.342,0.146,-1.146,0.32,263.2,18.03,-2.944,-4.154,3.345,1.75,344.19,-20.78,4.949,2.616,43.922,-58.09,390.98,-52.53,-88.667,49.015,171.303,104.383,310.178,190.514
0609-1-01-450,Doppelsalto B,-0.355,0.54,47.238,21.94,349.32,-43.82,-0.967,3.023,-3.0,8.35,185.59,-4.72,-4.579,-0.278,1.035,-12.85,18.59,-31.26,-15.474,3.063,-12.437,3.38,-168.73,-32.5,-8.308,-0.008,-3.342,-39.41,152.57,-19.57,-20.773,-2.222,-4.199,-35.09,535.38,49.02,-35.303,-0.689,-2.852,-9.34,674.0,37.51,-33.83,-1.958,0.266,-21.38,667.03,19.63,-33.993,-1.696,-3.77,-21.02,675.04,-5.68,-34.104,-2.407,-12.659,-34.54,750.36,5.52,-34.505,-1.554,-27.294,-0.25,855.66,-6.0,-32.349,-0.179,-29.902,69.84,802.77,21.49,-29.16,1.479,-27.556,55.03,676.82,-16.21,-14.67,0.515,-9.687,69.68,467.77,-39.16,-4.208,0.33,-4.555,65.79,295.33,-21.33,-0.448,-0.849,-8.567,42.15,169.56,-34.29,-2.475,-0.522,-9.212,7.31,117.51,-50.39,-6.321,-0.433,-7.869,-15.74,115.37,-1.67,-8.395,-2.061,-0.024,-4.25,197.02,20.35,12.991,2.081,38.148,17.02,259.88,-6.49,18.416,712.69,-17.246,60.749,750.841,61.113
0115-CHARI-05-87,Salto B,4.099,3.021,52.341,-14.46,190.15,-0.93,1.341,-1.161,-0.882,-14.9,84.66,-2.18,-9.461,-0.107,6.036,15.11,-105.98,11.92,-18.736,0.044,-10.146,20.08,-207.26,72.99,10.568,-2.074,-5.473,10.64,92.32,-10.07,2.153,0.085,-14.52,25.48,536.56,-80.34,-14.323,-0.457,-19.527,-34.03,539.52,-67.65,-18.895,1.567,-17.595,-41.97,452.15,11.01,-15.586,-0.376,-4.303,-25.99,424.22,1.11,-4.917,-0.351,3.785,-25.07,236.67,-16.03,-0.627,1.305,-3.536,10.33,146.57,12.17,-1.303,0.989,-4.88,11.43,156.78,3.95,-1.763,0.475,-3.673,4.46,165.95,-1.92,-2.534,1.176,-4.297,12.86,158.29,8.51,-3.595,0.128,-2.966,16.21,137.37,-7.41,-2.994,1.01,-2.521,8.77,104.71,-25.92,-4.106,0.854,-1.079,-7.07,78.22,-6.19,-3.774,0.844,-0.531,-10.39,101.45,-13.6,-1.311,0.671,2.338,16.57,136.57,0.13,14.456,0.885,46.445,-23.24,122.82,-76.17,-5.5,334.038,-23.751,35.197,399.73,54.877
20190930-1247-FRANKFURT_2-01-223,Rudi,10.391,5.726,55.929,0.52,-130.37,53.73,-8.28,-0.968,-1.748,-22.24,-253.66,136.78,-13.727,0.189,-1.982,-51.41,-384.38,45.14,-7.497,3.601,-6.863,-48.19,-289.69,207.32,-7.977,0.229,-8.364,-48.03,-171.26,308.38,-6.724,3.703,-3.874,22.62,-39.1,425.48,-7.672,4.215,-2.402,120.38,-69.93,570.56,-12.822,1.304,-6.595,183.75,-6.77,604.44,-12.806,6.206,2.709,354.15,68.39,555.83,-15.825,1.018,10.365,414.3,-27.96,519.57,-17.039,-6.07,4.557,356.14,-144.48,575.6,-15.289,-6.264,-4.791,244.32,-162.59,638.56,-10.483,-10.05,-5.356,157.12,50.94,573.87,-2.246,-8.191,-4.329,76.25,162.85,358.47,-3.712,-2.08,-4.645,24.49,256.42,167.66,-5.044,-1.441,-4.356,10.63,267.39,115.82,-4.453,-1.813,-4.543,-13.78,253.26,63.88,-3.261,-0.582,-4.866,-32.91,240.75,80.68,0.418,-1.803,-2.261,-7.66,281.12,23.74,1.268,-2.186,23.754,136.14,321.71,-28.56,168.429,25.363,524.151,209.683,333.599,549.2
20190930-1247-FRANKFURT_2-01-271,Salto C,7.964,9.745,55.3,56.43,197.0,7.49,-1.482,-1.461,2.459,-22.02,21.47,7.23,-8.074,-2.373,-4.682,-34.03,-50.58,-13.81,-6.059,0.214,-8.53,-18.66,-79.77,21.96,-1.29,-1.371,-7.012,8.47,41.94,-21.62,-1.321,-0.818,-14.357,13.06,390.51,-68.73,-12.396,-0.528,-15.645,-4.21,595.09,-55.27,-23.346,-1.892,-21.479,8.97,670.08,-15.66,-29.303,1.296,-15.126,13.03,437.91,-58.2,-7.839,0.414,1.676,-32.32,230.26,-19.66,0.607,0.24,-4.852,-24.28,107.17,17.41,-0.075,-0.784,-4.305,-17.01,109.75,31.87,-0.896,-0.649,-3.438,-16.51,114.58,19.36,-1.036,-0.829,-3.736,-4.16,110.82,26.16,-1.343,-0.64,-3.802,-0.25,107.58,15.93,-2.385,-0.359,-4.481,10.21,98.43,16.72,-4.717,-0.687,-4.265,12.34,117.02,24.77,-5.797,0.273,-0.323,10.86,102.13,-9.44,10.956,-2.487,7.818,13.6,162.85,-29.29,13.605,3.378,27.082,95.5,314.9,12.63,6.969,340.581,-15.167,44.275,367.479,65.701
20191007-1150-FRANKFURT_2-01-120,Rudi,12.307,0.18,56.065,11.45,-164.48,36.53,-4.386,-0.106,7.921,-9.14,-327.34,92.5,-6.589,3.957,-4.615,-71.07,-347.17,197.99,-9.089,5.76,-7.406,-91.64,-321.5,260.75,-9.467,10.33,-7.152,-108.31,-195.3,474.61,-19.557,12.706,-4.382,-38.26,-160.71,598.51,-21.62,11.02,-6.155,94.71,-111.61,738.95,-26.37,-0.776,-2.671,229.92,25.8,683.08,-23.848,1.495,6.133,343.4,42.19,774.02,-27.687,-1.998,8.146,361.69,-101.58,828.59,-24.677,-0.562,-2.864,199.31,-108.42,848.14,-19.069,-5.804,-9.25,55.18,58.3,718.5,-10.637,-6.476,-10.341,-35.06,205.06,452.82,-11.441,0.529,-7.818,-20.39,168.29,350.88,-13.728,-1.238,-5.237,41.82,223.78,241.84,-9.124,-3.379,-5.035,15.87,237.29,123.13,-7.027,-3.74,-4.309,41.94,265.01,71.68,-8.537,0.124,-1.288,64.92,315.16,125.16,-0.241,-3.75,4.666,119.91,344.6,42.64,18.546,-0.377,41.959,107.58,274.92,-58.2,102.043,26.09,573.0,162.202,316.341,591.305
0609-4-01-518,Barani C,14.083,1.61,49.942,28.05,-107.91,-2.38,-2.791,-0.02,-1.725,32.9,-242.03,22.62,-15.826,-0.102,2.925,35.55,-346.51,39.29,-13.676,0.986,-3.686,-0.35,-393.98,91.78,-3.675,-1.445,-5.886,-22.43,-306.02,113.03,-5.181,1.877,-11.082,-28.75,-106.46,158.8,-5.989,2.422,-7.56,-3.18,-73.91,174.17,-7.281,0.253,-8.058,-30.14,-96.84,247.97,-2.159,-0.315,-10.096,-111.51,-87.31,275.39,-4.518,-1.087,-6.529,-110.98,6.99,265.45,-4.014,-1.946,-6.618,-109.35,45.04,248.01,-2.88,-1.233,-5.87,-86.36,102.32,219.28,-3.192,-1.798,-4.993,-68.98,130.94,186.91,-2.696,-1.272,-3.366,-40.52,126.78,147.65,-2.522,-0.788,-4.162,-25.55,118.37,117.44,-3.051,-0.239,-4.675,-3.55,107.2,89.11,-4.634,-1.188,-4.261,11.57,117.98,53.04,-7.145,-0.804,-2.534,25.87,146.87,57.4,-2.012,-2.801,4.361,36.66,171.47,15.57,16.923,-0.085,38.147,14.76,238.06,-4.46,-42.135,-41.292,220.596,80.122,281.365,229.599
20191007-1159-FRANKFURT_1-01-385,Barani C,16.423,-3.266,57.698,30.52,-204.9,-63.41,-19.395,-0.673,1.244,72.99,-427.92,13.29,-15.791,-2.767,-5.315,43.73,-487.91,31.12,-10.687,-1.168,-5.328,31.58,-420.56,40.91,-5.379,-0.771,-5.878,0.47,-354.46,57.34,-6.227,0.785,-9.58,15.24,-154.72,115.04,-8.538,6.423,-10.486,40.77,-32.43,280.52,-8.405,0.561,-4.846,13.58,-18.17,389.99,-4.28,-0.621,-8.465,-76.13,25.18,366.86,-4.007,-2.996,-6.849,-117.41,64.26,306.13,-4.28,-2.707,-6.096,-97.89,103.62,268.46,-3.631,-4.425,-3.918,-47.83,112.15,222.59,-1.875,-4.565,-5.763,-15.04,102.46,137.42,-2.12,-2.297,-4.848,-14.78,97.06,44.13,-3.508,-0.923,-4.347,-22.51,115.61,17.07,-6.055,-1.587,-3.987,-33.26,177.6,-22.24,-7.247,-0.651,-1.823,-42.75,242.3,7.41,-5.734,-1.651,2.338,-32.61,287.6,46.79,3.317,-2.679,5.416,-31.85,374.75,18.63,2.15,-1.793,39.587,-57.7,268.25,-75.86,-27.956,-6.846,165.37,69.689,328.998,205.592
20191007-1534-FRANKFURT_2-01-95,Schraubensalto A,-2.199,8.073,55.13,-7.7,263.86,16.91,-3.047,0.433,4.798,55.05,272.58,13.45,-2.632,2.962,-0.71,80.13,259.27,70.53,-2.796,1.729,-2.279,166.64,160.94,226.08,-3.932,-3.244,-3.5,174.85,57.01,315.94,-5.719,-3.182,-2.361,200.77,10.65,306.42,-6.997,-1.6,-0.918,257.24,-57.37,346.04,-9.743,-1.586,-1.245,237.74,-138.17,401.81,-8.801,-2.48,-6.252,110.49,-191.13,406.42,-8.606,-1.421,-10.097,-30.27,-162.94,427.34,-6.452,-2.959,-11.473,-116.17,-77.81,422.41,-5.401,-3.295,-10.5,-138.88,8.3,382.49,-5.777,-3.524,-9.603,-103.62,73.17,327.82,-5.448,-3.984,-8.424,-51.57,135.79,275.29,-5.846,-3.038,-6.718,-9.0,172.6,215.03,-6.362,-2.604,-5.42,19.35,192.32,143.72,-6.917,-2.487,-6.579,25.43,221.97,49.49,-9.297,-1.04,-3.12,15.19,267.11,20.23,-4.095,-3.312,5.012,58.23,276.64,19.67,11.518,4.043,36.683,78.07,294.83,-55.05,80.874,175.114,339.385,156.179,275.227,356.372
0609-4-01-412,Salto C,15.651,-0.035,46.127,14.99,245.86,-6.96,-3.211,0.538,-0.043,-22.4,55.79,7.85,-4.398,-1.813,-3.651,-15.05,-69.74,3.24,-1.544,0.413,-7.944,-17.07,-42.81,16.88,-4.453,-1.538,-4.135,-8.51,216.39,8.97,-14.936,-0.372,-7.57,5.27,521.22,2.07,-12.526,-0.362,-4.937,5.96,475.05,10.11,-14.246,-0.954,-2.477,9.14,442.13,1.69,-8.531,-0.262,-8.656,-9.4,392.45,-12.13,-4.254,-0.741,6.257,-18.36,257.61,13.42,-2.464,-1.401,-0.35,-23.78,153.41,11.37,-0.209,-0.607,-2.978,-6.34,92.91,12.99,-0.854,-0.778,-2.598,-2.24,74.38,0.61,-0.845,-0.823,-2.778,5.5,66.82,-9.44,-1.328,-0.369,-1.863,1.52,69.95,-6.61,-1.384,-0.098,-2.737,-2.98,69.14,9.64,-1.991,-0.477,-3.291,-4.23,75.82,18.48,-3.855,-0.549,-2.688,20.81,98.97,36.41,3.694,-0.308,2.992,24.12,122.89,-0.04,15.758,-1.391,32.837,2.95,325.81,-49.12,-3.483,365.146,0.518,26.246,397.387,34.729
20190930-1153-FRANKFURT_1-01-238,Salto B,7.187,-0.892,52.222,20.3,151.17,-16.03,-0.691,-0.328,1.041,10.56,66.42,-2.18,-7.205,0.58,4.218,-10.92,-76.58,14.8,-15.077,-0.634,-6.481,-24.01,-186.62,-9.45,3.628,1.392,-5.899,-26.25,-57.38,6.65,11.493,-2.532,-17.475,40.81,249.71,75.43,-14.848,2.61,-22.807,115.66,623.37,1.01,-27.771,5.836,-22.506,111.01,676.44,17.49,-24.352,1.464,-17.729,92.71,553.28,-8.88,-16.178,1.857,3.406,72.18,418.14,-22.46,-3.423,-0.19,2.85,58.4,188.69,-14.96,1.821,-1.86,-5.54,36.19,136.51,-2.5,-1.655,-0.88,-3.916,37.61,142.64,-2.03,-1.231,-0.531,-3.196,22.17,127.14,-14.97,-0.953,-1.075,-3.7,4.19,111.01,-2.83,-1.114,-0.599,-4.682,-20.47,89.48,-1.0,-3.061,-0.283,-4.488,-7.8,86.14,15.34,-6.205,-0.61,-2.381,16.28,88.07,20.31,-1.534,-1.625,5.082,26.29,111.31,-29.42,17.515,-1.659,34.547,20.12,238.08,-77.78,54.749,346.921,-11.583,72.531,407.588,46.54
0115-CHARI-05-133,1 3/4 Salto vw C,8.743,5.405,53.015,39.93,-201.17,62.22,-10.221,0.707,-1.794,-49.77,-384.49,43.6,-20.814,0.967,-1.239,-14.56,-481.39,-28.72,-32.466,-1.228,-6.007,25.58,-634.38,11.01,-40.238,-1.773,-14.286,46.15,-642.5,48.52,-45.041,-1.976,-16.901,27.37,-709.21,70.85,-31.04,-1.277,-20.32,2.1,-637.1,55.68,-13.608,-0.996,-14.463,-11.32,-216.83,-5.57,-7.084,-3.33,-9.111,-6.22,-55.72,-40.62,4.386,0.017,-9.638,-11.57,-21.52,-30.39,0.064,1.831,1.689,18.67,-191.23,1.56,-2.051,0.824,-2.938,-1.1,-268.91,2.75,-3.103,-0.154,-3.972,7.95,-290.62,-2.01,-4.627,-0.059,-2.904,18.55,-352.22,-22.55,-9.365,-0.099,-3.83,38.23,-402.83,-4.2,-10.482,-0.335,-8.204,21.92,-394.23,13.01,-7.533,0.81,-7.748,9.21,-359.98,22.97,-6.049,0.341,-4.321,2.65,-351.86,23.4,-15.173,-8.169,-4.643,-46.17,-348.46,-14.48,-32.622,0.897,18.995,3.77,-216.3,-18.15,19.62,-661.136,41.663,50.934,677.819,81.805
20191001-1148-FRANKFURT_1-01-95,40/,-3.771,-1.628,45.573,-2.87,357.17,2.83,-6.414,-1.958,2.175,-6.98,247.51,9.39,4.395,-0.169,1.907,-23.92,224.79,-34.92,0.437,-1.562,-5.207,-28.75,141.93,-8.8,1.864,-0.004,-8.854,-33.36,173.4,10.92,-0.04,-0.582,-6.763,-23.41,232.54,-3.97,-0.383,-0.78,-7.053,-17.16,237.8,-5.02,-0.018,-1.716,-6.885,2.41,240.6,-6.43,-0.591,-1.697,-7.008,-21.5,223.53,-6.97,-0.82,-1.46,-5.422,-30.68,209.74,-12.77,-1.006,-1.574,-5.559,-15.04,179.52,-9.22,-1.585,-1.131,-5.126,-2.52,146.34,-2.49,-1.909,-1.408,-5.474,-0.18,113.5,-11.87,-3.137,-1.499,-5.229,-19.49,102.99,-29.28,-3.007,-1.163,-5.866,-22.55,98.47,-17.33,-2.838,-0.685,-6.436,-25.54,133.29,2.36,-5.191,-1.379,-5.208,-34.32,222.49,-16.59,-8.295,-0.372,-0.966,-40.81,280.89,-0.68,-2.427,-1.965,8.305,-24.08,328.66,-53.6,17.627,-0.114,47.414,-82.48,218.19,-20.38,-38.601,331.044,-23.303,43.395,340.452,45.148
20191008-1157-FRANKFURT_1-01-334,Salto A,-4.989,0.856,47.747,-23.19,328.42,-6.49,-2.288,-1.8,-2.884,-8.35,258.28,-11.07,-0.507,0.15,1.503,-19.73,279.14,-17.81,2.241,-0.267,-2.871,-16.75,222.18,-28.8,2.996,1.093,-8.601,-16.51,156.73,-13.34,1.222,-1.161,-9.025,-7.46,175.74,22.22,0.357,-0.564,-7.708,-2.66,216.53,20.17,-0.721,-0.841,-6.915,11.23,200.62,13.95,-1.655,-1.555,-7.012,13.07,212.11,-6.77,-1.733,-1.441,-6.747,23.7,216.99,-6.36,-1.893,-1.882,-6.3,17.07,206.55,-26.22,-1.457,-1.095,-6.319,-0.55,175.15,-19.87,-2.163,-1.581,-6.454,-10.47,148.2,-21.09,-2.966,-1.43,-6.38,-13.82,133.19,-9.93,-4.622,-0.476,-6.699,-5.31,135.6,7.42,-6.257,-0.982,-4.404,11.75,164.99,-1.13,-6.679,-0.46,-2.509,5.18,215.62,-35.8,-5.134,-0.608,-0.622,-1.24,238.35,-37.31,-0.741,-0.429,2.785,-16.51,288.03,-54.27,14.137,-0.224,49.125,-32.82,159.54,-38.08,-9.597,337.343,-22.804,27.537,337.644,43.84
0609-4-01-293,Salto C,23.479,0.175,39.934,-19.09,277.63,18.83,-4.086,0.054,1.852,-5.82,56.74,31.28,-7.434,-1.815,-7.346,-1.88,-59.87,15.5,-0.09,0.121,-8.976,-13.48,96.02,16.83,-4.994,-0.866,-8.395,8.91,497.17,-7.8,-18.52,0.913,-10.106,34.35,489.99,39.29,-14.028,-0.889,-5.031,-24.46,416.98,12.58,-7.851,-1.324,3.616,-31.19,281.52,1.22,0.6,0.284,-4.113,6.37,104.43,21.26,-1.01,-0.086,-4.399,23.66,146.76,20.01,-1.347,-0.279,-3.365,13.64,151.98,19.17,-1.843,-0.58,-3.26,-7.75,149.07,15.01,-1.613,-0.254,-3.115,-1.9,139.52,20.07,-1.683,-0.746,-3.072,12.38,128.85,14.61,-1.561,-0.349,-2.925,10.26,119.38,8.19,-1.846,-0.347,-2.804,15.07,106.24,-1.12,-2.795,-0.423,-2.97,5.55,80.26,-3.79,-6.828,-0.728,-2.997,11.31,66.24,6.65,2.179,0.802,5.34,20.44,108.91,-4.97,22.511,-1.066,28.292,0.43,281.2,-6.35,5.554,364.403,16.321,34.443,379.319,33.444
20191007-1150-FRANKFURT_2-01-84,Barani A,18.034,5.306,56.307,-8.63,-123.82,46.06,-1.665,-2.885,8.143,-41.93,-328.88,74.87,-3.728,-0.159,-3.892,-97.65,-255.14,73.16,-4.003,2.425,-5.149,-79.82,-175.65,86.46,-5.763,4.418,-5.276,-73.93,-107.19,163.39,-6.896,2.928,-5.558,-106.11,-121.08,165.49,-4.857,2.471,-9.493,-143.39,-114.43,100.85,-1.172,5.502,-10.481,-164.96,-90.58,166.32,-2.21,2.447,-12.098,-166.28,-72.99,261.84,-2.855,-0.04,-11.494,-144.19,-9.19,294.93,-3.767,-3.144,-10.952,-151.48,98.43,281.86,-2.328,-3.34,-8.617,-111.12,142.04,228.44,-3.461,-3.882,-10.069,-43.96,136.62,181.77,-3.158,-3.825,-8.598,-24.42,127.95,122.3,-7.723,-0.584,-9.61,-27.33,144.03,60.82,-8.672,-1.067,-5.644,0.82,211.04,59.45,-7.803,-1.305,-3.576,6.49,274.45,47.76,-4.843,-0.868,-1.994,20.31,277.4,66.6,-0.678,-3.345,0.05,56.19,326.38,-17.01,12.344,-0.73,26.156,73.14,366.79,-10.44,-89.969,53.674,178.261,118.81,274.533,192.243
0609-4-01-379,Salto C,28.674,3.398,39.3,-5.95,229.64,-20.43,-4.307,-1.988,-0.031,-7.17,397.97,-35.32,-7.191,-0.246,-6.268,-56.35,398.13,-61.37,-2.644,0.195,-4.815,-51.97,279.4,-7.72,-2.357,-0.188,-4.004,-19.93,188.22,12.83,-1.717,-1.952,-3.937,-10.3,100.08,0.55,-0.51,0.01,-6.069,-18.61,76.25,12.21,-2.191,-0.495,-7.44,-4.27,70.36,12.18,-3.503,-1.503,-4.811,-18.41,94.63,31.1,-3.98,0.179,-4.34,-12.17,159.83,20.21,-4.649,-0.219,-4.504,6.55,191.58,27.03,-5.196,-0.254,-4.083,10.31,214.03,35.82,-4.972,-0.651,-3.932,6.29,222.97,19.89,-4.778,-0.387,-4.396,12.96,207.32,16.62,-5.273,-0.354,-3.823,16.62,198.68,11.69,-4.6,-0.462,-3.649,14.15,200.54,0.33,-4.39,-0.668,-4.136,2.42,235.52,-19.16,-4.767,-0.433,-4.345,-8.78,269.13,-28.85,-3.179,-0.026,-4.229,-12.62,272.49,-4.25,14.256,0.07,45.629,-9.85,183.71,36.96,-12.313,346.869,-1.603,26.995,348.427,38.203
0115-JANEIKE-01-118,Fliffis- Rudi B,13.283,-5.941,56.49,-119.01,-245.35,-79.43,-26.946,12.681,-9.066,-66.84,-613.6,-12.59,-39.54,5.42,-10.61,-160.21,-715.2,93.56,-39.336,10.128,-16.262,-201.58,-761.25,48.28,-45.334,12.039,-10.107,-208.25,-666.79,59.93,-45.267,12.638,-13.141,-252.52,-722.3,-26.09,-23.225,7.515,-13.006,-168.82,-596.32,-69.01,-14.273,-5.446,1.217,-106.09,-215.74,-119.72,-27.25,-14.44,-6.142,-123.37,-174.12,-537.81,-35.778,-13.179,-7.124,-131.52,-105.4,-849.39,-35.432,-6.596,-8.014,-168.45,29.71,-923.32,-32.114,0.062,10.321,-438.11,-47.16,-836.44,-29.888,9.031,4.654,-404.99,-336.53,-729.45,-28.024,2.447,-16.69,-88.66,-416.85,-725.67,-24.311,6.697,-25.225,128.29,-162.86,-722.28,-8.255,14.806,-22.702,178.49,90.68,-467.51,-7.457,2.145,-15.128,142.32,137.65,-278.71,-11.212,-0.122,-12.477,50.49,216.53,-162.34,-21.69,6.29,-9.001,42.92,398.48,-18.06,-1.999,-2.164,35.637,125.4,464.49,-11.62,-168.247,-375.566,-542.991,292.396,617.091,591.322
0609-1-01-778,Bauchsprung,3.894,-2.548,51.313,9.6,36.7,-34.2,1.981,0.56,11.14,-10.36,-64.9,-18.1,2.55,-0.388,-0.358,-10.66,-73.94,19.74,-0.717,-0.553,-1.026,-2.97,-33.29,4.85,-0.529,0.116,0.272,-11.57,-47.27,-2.44,-0.811,-0.149,0.409,-7.98,-52.38,-9.24,-1.116,0.01,0.504,-4.85,-75.49,-8.48,-0.826,-0.184,-0.046,-4.35,-110.52,-4.55,-0.754,-0.572,-1.09,-0.98,-121.96,-21.29,-1.074,0.358,0.492,1.97,-114.56,-22.9,-1.408,0.146,-0.804,14.56,-92.52,-8.64,-0.895,-0.051,-1.757,18.78,-74.16,0.87,1.341,-0.175,-1.093,17.22,-59.88,-2.4,0.829,0.059,-1.096,4.96,-37.81,37.03,0.7,-1.495,-0.862,14.12,-40.53,52.31,-1.257,-1.244,-1.809,-1.94,-20.13,-9.96,-1.297,-0.088,-1.585,-9.27,32.29,-17.12,-0.656,0.184,-0.887,-3.27,100.01,-13.2,8.665,0.01,2.681,9.26,252.2,0.93,44.296,-1.319,33.602,17.18,69.86,-53.86,2.25,-37.383,-10.354,19.495,130.364,36.09
20191007-1150-FRANKFURT_2-01-132,Rudi,12.057,3.715,55.928,9.94,-141.79,83.35,-2.6,-1.888,5.164,-35.02,-310.17,125.29,-7.232,4.31,-5.561,-98.01,-284.34,193.42,-8.43,4.581,-7.967,-101.85,-311.57,225.24,-8.064,8.713,-8.061,-109.34,-170.69,413.72,-16.748,13.182,-6.636,-65.75,-130.24,574.64,-19.473,9.978,-8.194,44.03,-49.04,757.18,-27.675,3.853,-5.432,168.52,31.4,677.06,-22.84,-0.613,5.394,300.81,47.18,732.92,-24.617,2.045,8.588,364.01,-70.43,782.92,-23.926,-1.065,0.151,236.5,-110.22,786.13,-17.403,-5.31,-6.425,74.64,60.53,715.16,-11.939,-4.388,-9.746,-33.77,175.28,536.7,-9.915,-0.893,-9.42,-58.24,157.51,373.26,-12.572,-2.983,-7.336,-6.74,166.55,230.58,-9.668,-3.806,-6.259,-21.17,211.29,163.42,-9.763,-2.217,-4.705,-5.45,274.86,116.28,-8.653,-0.559,-1.211,37.44,315.87,172.09,-4.686,-6.72,2.59,98.76,382.26,52.21,10.492,-0.326,29.22,124.92,373.24,-46.42,75.717,50.187,584.638,158.13,299.828,597.035
20191007-1150-FRANKFURT_2-01-141,Salto A,4.168,1.87,52.812,25.32,193.44,0.54,-7.242,0.655,12.005,15.92,267.23,-36.62,-3.803,0.527,-6.402,14.34,215.06,-34.3,-0.067,0.165,-3.654,2.17,167.05,-14.31,2.315,-0.8,-5.44,5.4,99.37,-13.63,-1.27,-0.247,-8.238,-17.15,214.62,-12.85,-2.607,0.156,-8.898,2.27,255.15,1.35,-1.663,-0.071,-8.245,8.11,276.72,4.99,-1.95,-0.065,-7.87,12.69,280.68,-2.08,-1.884,-0.584,-8.137,29.95,243.04,-0.95,-1.834,-1.078,-7.852,26.45,209.5,3.78,-2.88,-1.168,-7.79,10.48,191.69,-10.45,-3.541,-1.239,-7.528,-4.08,172.32,-15.87,-4.11,-1.298,-7.85,-5.22,166.69,-9.47,-5.704,-0.373,-7.019,3.96,161.53,-3.6,-7.059,-0.974,-4.913,-4.52,188.23,-2.84,-6.924,-0.341,-2.738,-11.9,212.46,6.58,-5.282,0.382,-0.772,5.71,192.54,42.05,7.725,-3.293,1.546,36.62,212.67,-53.31,14.959,0.808,36.346,46.94,279.07,10.66,18.114,338.489,-12.927,27.392,338.597,31.502
0110-MORITZ-01-97,Fliffis B,18.45,-2.206,56.248,30.49,-190.84,-14.87,-20.759,-6.86,-12.373,18.48,-397.13,18.51,-25.554,-0.976,-4.453,47.36,-576.81,31.94,-33.929,-0.96,-12.982,2.28,-668.8,36.71,-37.536,-0.464,-11.715,-21.4,-740.09,66.11,-41.095,2.7,-3.518,-54.26,-711.8,65.9,-42.443,1.949,-0.848,-106.27,-694.68,2.51,-43.402,0.521,-0.541,-67.24,-703.18,-55.7,-25.041,-0.566,-10.187,-3.84,-563.14,-79.2,-8.691,-1.386,0.223,39.2,-177.83,-160.57,-11.637,-11.758,-8.629,2.5,-41.86,-225.59,-15.487,-14.127,-4.724,-139.72,-17.8,-324.77,-7.975,0.197,-13.212,71.19,42.48,-326.9,-6.419,0.894,-13.103,141.35,90.73,-281.12,-6.369,4.052,-12.008,115.38,107.32,-266.88,-7.953,3.776,-9.99,46.73,129.94,-221.39,-8.83,2.747,-9.994,-6.16,157.82,-112.2,-9.011,1.293,-11.683,2.53,242.32,-27.61,-17.691,1.841,-8.768,5.28,444.23,22.03,1.374,2.925,41.957,62.78,481.36,19.32,16.575,-334.852,-170.841,101.009,658.673,225.792
0115-MORITZ-03-163,Fliffis aus B,11.22,-3.917,52.095,5.0,-181.57,-4.22,-21.201,3.362,-15.331,-37.98,-481.1,14.68,-32.346,3.611,-12.914,-48.89,-659.57,19.95,-36.116,2.64,-15.7,-75.61,-737.54,39.94,-40.799,4.111,-7.756,-81.91,-726.57,46.74,-43.868,4.517,-5.318,-110.51,-705.52,12.55,-22.208,1.228,-14.067,-74.48,-544.31,-1.53,-8.891,3.122,0.281,-25.19,-132.5,-19.3,-11.019,-8.059,-11.245,-21.61,36.81,-169.37,-16.216,-9.168,-5.542,18.46,-2.75,-331.95,-7.804,-1.678,-12.91,211.14,-83.2,-245.97,-2.41,3.145,-23.229,287.21,-20.87,-258.69,-2.752,5.51,-17.468,282.02,152.91,-183.45,-3.269,4.545,-12.116,227.01,187.33,-156.53,-4.31,3.187,-10.891,167.09,174.31,-140.45,-5.595,2.478,-9.977,76.77,147.05,-155.46,-5.469,2.168,-10.39,-2.5,152.94,-91.6,-11.02,1.624,-10.383,-17.0,194.23,-11.19,-12.112,0.216,-1.838,-13.16,277.81,60.55,7.774,-4.241,28.643,18.17,456.69,17.44,78.527,-235.646,-155.916,181.135,606.385,211.133
0827-BK2-01-65,Salto B,14.336,1.99,52.069,44.44,157.27,8.9,-1.367,-0.11,-1.748,-5.0,7.91,-10.76,-9.609,0.511,-1.589,-12.3,-131.24,-1.33,-9.756,0.764,-5.522,-4.86,-145.34,-5.42,5.104,1.749,-1.39,4.32,12.78,-16.21,0.378,-1.17,-14.348,-17.13,408.06,-30.38,-14.884,0.689,-14.926,-2.16,587.38,17.25,-20.124,1.306,-15.523,16.94,571.01,-7.09,-20.196,2.096,-12.358,-14.97,522.22,14.7,-8.761,1.468,3.567,3.82,289.72,-0.48,-2.119,1.699,-1.261,-9.5,141.76,4.53,-0.683,1.17,-3.344,-9.52,112.64,13.39,-0.894,0.714,-3.646,-22.91,124.57,9.41,-1.153,0.966,-3.505,-4.82,121.62,-24.93,-1.845,1.104,-1.822,20.39,100.6,-10.65,-2.316,0.622,-2.934,22.57,89.65,-8.38,-2.432,0.502,-2.279,3.26,92.25,-20.73,-4.047,1.483,-2.457,-4.46,74.54,-13.65,-2.856,0.815,-0.072,-12.69,100.75,1.47,13.285,-0.846,40.126,1.9,230.78,6.32,1.074,337.871,-4.527,27.603,400.986,28.223
20191007-1150-FRANKFURT_2-01-151,Salto A,5.035,1.903,53.599,12.12,182.34,-22.1,-6.931,0.471,7.41,6.04,279.54,4.23,-9.231,-0.561,-1.937,19.69,245.63,-9.95,0.448,-0.62,-3.46,17.79,155.35,-22.32,4.607,-0.431,-3.707,1.16,118.27,-11.35,-0.217,0.267,-8.419,-8.11,147.64,30.02,-2.848,-0.131,-9.212,0.66,216.63,10.8,-1.881,-0.754,-8.393,13.46,222.32,-15.56,-2.563,-0.039,-7.659,15.56,245.36,-13.43,-2.447,-0.565,-7.836,21.22,228.71,2.83,-3.997,-1.184,-7.858,16.22,214.26,-7.31,-3.725,-0.981,-6.961,1.78,202.97,-15.11,-3.863,-0.804,-7.32,-6.9,191.25,-16.93,-4.284,-0.619,-7.228,-6.87,194.77,4.77,-6.416,-1.359,-8.433,2.58,201.12,9.26,-8.07,-1.357,-5.752,0.25,220.78,5.19,-7.928,-0.046,-2.118,-9.22,233.95,13.2,-5.707,-0.047,0.312,-4.21,184.44,23.19,7.533,-1.834,0.685,28.29,217.5,-23.28,14.76,0.076,40.608,54.66,262.63,22.88,14.502,335.633,-4.473,24.088,337.155,32.916
0115-MORITZ-03-178,Fliffis aus B,7.926,6.268,52.12,77.3,-174.71,8.73,-24.247,-3.092,-17.714,-9.98,-499.54,99.82,-33.763,2.549,-14.966,-49.03,-660.21,55.45,-38.1,1.755,-17.893,-73.62,-748.6,62.5,-42.883,3.536,-9.426,-93.08,-761.82,54.15,-42.233,3.888,-8.218,-92.68,-685.43,20.85,-9.982,-1.177,-7.676,-45.69,-310.89,-45.3,-8.512,-3.882,-12.087,-38.06,-32.92,-80.55,-16.639,-14.387,-13.592,-42.68,13.78,-301.88,-11.854,-1.305,-10.243,111.64,-93.04,-263.55,-5.687,-1.1,-19.983,271.78,-93.16,-252.54,-3.498,3.117,-22.313,296.08,45.16,-233.87,-2.94,5.263,-16.701,267.29,167.09,-188.83,-2.849,4.844,-12.561,223.23,197.55,-139.04,-4.068,3.534,-11.185,150.89,178.15,-132.24,-5.729,2.901,-11.528,75.25,151.9,-137.89,-8.058,2.7,-11.033,11.33,170.94,-71.82,-10.702,2.631,-11.286,3.83,209.49,-19.04,-15.535,1.934,-2.507,10.7,335.26,57.64,9.315,-5.075,31.218,19.95,466.09,10.6,105.293,-196.56,-141.862,193.027,588.522,225.335
20191008-1157-FRANKFURT_1-01-215,Fliffis C,11.383,2.307,57.38,10.48,-378.24,49.33,-38.824,-5.492,-8.41,32.92,-674.3,-43.32,-29.419,-3.643,-4.237,148.04,-721.12,-52.64,-40.628,-8.133,-5.813,127.16,-680.21,25.25,-51.241,-12.319,-10.881,114.15,-639.19,-0.99,-48.201,-10.413,-18.63,122.79,-669.52,-32.3,-51.198,-8.787,-19.402,155.84,-731.22,17.16,-52.133,-6.37,-22.5,128.24,-753.54,75.51,-43.84,-2.255,-25.879,50.2,-657.94,146.04,-17.759,0.946,-23.795,-44.5,-361.01,214.4,-9.826,6.014,-20.412,-86.8,-165.06,329.71,-11.226,5.122,-21.406,-81.76,-45.07,472.26,-3.196,-6.888,-11.396,-150.78,18.59,445.59,-6.473,-4.307,-11.752,-92.08,107.02,375.69,-6.204,-5.606,-10.984,-36.15,181.36,250.04,-6.178,-4.793,-10.568,-23.94,226.16,115.7,-8.124,-4.394,-11.196,-51.84,214.63,25.61,-13.653,-2.571,-4.553,-37.06,312.99,6.9,-12.524,0.958,6.702,-29.48,405.28,23.57,14.319,-0.58,39.922,-51.46,373.08,-37.13,18.757,-362.412,185.268,124.863,665.292,223.761
0609-4-01-277,Salto C,15.075,3.462,46.645,25.89,298.81,18.04,-4.574,0.861,0.858,-24.22,81.9,29.0,-6.084,-1.454,-8.478,-14.97,-72.77,-12.29,-1.942,-0.105,-9.522,-26.01,52.38,-4.07,-2.614,-0.489,-7.481,4.33,477.34,12.68,-17.968,-0.26,-12.341,5.32,492.01,25.09,-14.825,-2.079,-2.892,9.62,379.8,-3.42,-7.574,-1.305,0.27,-27.87,285.28,2.47,-1.001,0.626,-5.064,35.35,174.54,23.49,-0.351,-1.406,-3.351,18.89,166.13,26.79,-1.934,-0.598,-3.051,1.63,152.6,-9.5,-0.942,-0.334,-3.515,-2.53,140.0,-2.91,-1.34,-0.861,-3.008,4.42,138.59,4.09,-1.826,-0.26,-2.82,-3.1,132.39,1.46,-1.528,-0.808,-1.896,7.3,106.0,-4.9,-1.405,-0.881,-2.682,1.98,73.91,-11.2,-2.324,0.092,-4.036,-11.55,52.74,-5.28,-5.622,-0.891,-5.781,0.97,76.69,18.08,2.37,0.91,6.531,12.1,134.63,-0.03,16.229,-1.852,26.891,-19.41,322.4,-23.43,-3.645,366.354,4.297,30.246,394.965,39.382
20191008-1207-FRANKFURT_2-01-144,Schraubensalto A,2.398,10.584,49.881,37.86,374.32,61.39,-7.114,6.566,1.196,123.71,246.53,96.75,2.221,-0.842,0.711,97.06,207.45,178.82,-2.806,-4.021,-1.252,64.42,103.25,252.74,-1.033,-3.228,-2.786,110.03,48.08,204.56,-2.712,-1.037,-4.078,164.89,27.53,213.27,-4.192,-1.742,-1.493,179.03,-37.72,260.58,-5.394,-1.875,-1.508,174.71,-157.99,288.25,-7.356,-3.869,-4.736,141.55,-192.29,344.15,-7.744,-3.252,-8.236,62.04,-189.47,390.62,-8.157,-2.303,-9.549,-26.02,-133.59,468.8,-7.03,-6.733,-9.852,-93.15,-31.33,445.1,-4.194,-5.696,-8.673,-100.88,54.95,360.23,-3.967,-4.475,-6.803,-72.9,128.8,300.86,-4.977,-3.238,-6.299,-41.37,157.94,256.66,-5.598,-2.785,-6.341,-15.4,181.18,186.68,-8.011,-2.899,-6.882,15.31,168.08,128.1,-6.136,-2.411,-3.985,13.1,253.27,41.14,-1.738,-2.652,2.499,48.11,354.67,40.87,-1.266,5.212,33.285,86.56,431.51,-78.78,83.922,177.272,358.431,144.217,308.98,393.315
0609-1-01-878,Bauchsprung,5.08,-1.084,53.226,9.95,67.45,-27.43,0.602,-0.112,13.276,3.41,-31.91,3.32,1.809,1.287,0.14,-11.12,-86.32,14.16,-0.751,-0.443,-0.634,-0.08,-48.82,-5.82,-0.478,0.022,0.305,1.81,-56.46,1.67,-0.849,-0.337,0.03,3.13,-92.02,7.11,-1.222,-0.735,0.031,-2.44,-119.99,-8.52,-1.25,-0.461,-0.625,-1.08,-116.56,-31.32,-1.29,0.141,-0.866,5.29,-93.1,-31.62,-0.433,0.283,-0.931,17.55,-76.75,-14.94,-0.027,0.348,-1.014,16.41,-61.64,1.1,0.077,-0.124,-1.046,10.9,-39.5,22.7,0.793,-0.35,-1.063,-4.87,-28.38,34.99,0.259,-1.46,-0.035,-17.5,-31.26,27.13,0.671,-0.183,-1.336,-5.82,-34.07,12.56,-0.896,0.209,-0.884,4.42,-24.79,21.88,-1.96,-0.262,-1.742,2.12,3.51,3.54,-0.15,-0.611,-2.298,15.67,66.89,-1.12,8.499,1.543,2.855,-11.07,200.1,27.77,46.567,-4.488,30.14,-6.02,28.82,-70.03,2.408,-42.902,-5.425,22.127,115.155,46.232
20191007-1534-FRANKFURT_2-01-140,1 3/4 Salto vw B,9.061,4.23,51.418,-1.53,-337.3,59.81,-34.424,1.586,-6.343,-14.74,-569.76,100.04,-30.352,-1.731,-17.229,5.76,-696.08,71.92,-26.286,-1.569,-22.03,1.7,-722.8,113.93,-17.903,-1.496,-8.505,-32.98,-654.0,116.92,-26.584,2.863,1.358,-51.24,-586.31,110.89,-25.452,1.808,-2.348,-57.48,-557.36,93.17,-19.502,1.939,-3.683,-57.36,-477.82,84.48,-11.664,1.207,-3.6,-43.2,-353.68,79.55,-6.277,-0.461,-3.748,-49.26,-160.58,70.69,-6.307,-0.048,-6.1,-39.38,-0.64,14.85,-7.389,-3.133,-12.519,-27.13,98.38,-48.61,-4.175,-0.571,-2.294,1.31,18.3,-80.15,-9.574,-0.14,5.491,13.55,-245.04,-10.8,-15.239,1.505,-7.67,22.39,-497.79,28.82,-24.94,-1.142,-19.342,-14.71,-635.32,77.02,-22.333,-0.14,-17.818,-17.87,-641.29,95.45,-19.162,-1.152,-14.699,-46.67,-572.51,76.35,-22.177,1.778,-5.753,-79.9,-341.35,42.74,-38.113,-2.149,-2.176,-52.15,-145.65,-48.85,-42.056,-644.861,75.624,55.432,681.777,126.531
0827-BK2-01-61,Salto B,14.491,1.428,52.163,49.2,156.24,26.98,-1.124,0.374,-1.52,-5.93,7.4,7.57,-9.301,-0.494,-0.992,-9.22,-136.63,-12.71,-11.105,1.373,-5.377,-2.38,-163.31,-10.41,5.826,1.568,-1.645,25.9,6.39,3.21,-1.093,-0.933,-12.614,40.77,447.65,-38.17,-11.524,0.656,-15.871,24.45,604.45,-37.76,-21.979,3.082,-17.858,22.08,570.04,-21.71,-17.73,1.795,-4.643,7.04,437.45,-1.19,-5.066,1.348,2.16,-17.98,233.41,19.46,-0.358,0.167,-3.027,-38.72,133.32,-29.4,-1.297,1.928,-3.835,8.16,133.36,2.06,-1.896,0.961,-2.769,12.03,135.56,18.75,-1.213,1.008,-2.923,3.24,127.03,-14.28,-1.728,0.93,-3.085,5.39,115.48,-3.88,-2.082,0.595,-3.275,13.01,100.26,-8.57,-3.422,0.46,-2.616,0.66,95.18,-20.58,-5.253,1.711,-1.382,-3.15,89.7,-13.71,-2.997,1.093,1.26,-0.66,104.23,-0.4,12.146,0.653,42.148,-0.63,203.88,6.04,13.649,340.452,-12.743,31.872,408.329,37.286
0115-MORITZ-03-128,Salto C,16.412,-1.227,49.101,19.76,155.69,-2.24,-3.775,0.819,-0.04,-8.88,-89.19,23.56,-8.579,-1.575,-5.771,-6.79,-136.68,-2.06,-1.003,-1.046,-8.776,-32.04,216.41,-13.23,-5.236,1.55,-13.567,-31.52,564.82,36.98,-10.843,-2.231,-8.119,-18.06,494.89,23.45,-20.688,-0.762,-16.071,7.77,370.18,-0.3,-6.609,-1.707,2.013,-21.01,227.29,0.79,-1.778,0.041,-2.77,6.26,171.27,11.67,-1.62,-0.97,-2.712,5.47,158.45,2.16,-1.561,-0.519,-3.213,1.64,152.29,0.53,-1.144,-0.677,-3.041,-2.91,139.0,-2.28,-1.958,-0.607,-1.698,-0.33,122.02,8.99,-1.53,-1.003,-1.369,-2.47,92.18,4.59,-1.676,-0.415,-2.08,0.53,80.61,-0.79,-1.057,-0.722,-2.473,-1.64,68.18,-5.14,-1.161,-0.581,-3.108,-6.48,62.98,10.16,-1.387,-0.054,-4.247,-9.52,50.43,32.56,-2.754,-1.936,1.224,5.7,160.45,20.69,16.874,-1.423,27.728,14.27,327.08,-14.29,-6.994,345.277,12.626,23.611,386.925,33.298
20191001-1148-FRANKFURT_1-01-140,43/,11.01,-3.102,55.941,-70.63,-245.64,85.73,-15.077,4.419,-1.556,-97.08,-451.89,47.71,-10.904,4.638,-5.74,-14.88,-314.92,263.82,-13.385,8.952,-6.712,24.56,-155.73,555.36,-14.916,5.247,-7.3,113.07,-95.87,730.55,-17.417,0.481,-4.878,190.4,37.18,761.77,-15.333,2.048,-2.553,180.61,104.96,685.8,-14.587,2.137,2.5,231.74,-1.25,650.97,-10.766,-1.059,2.498,189.19,-144.81,562.46,-10.583,-0.119,-4.021,92.49,-232.92,521.69,-14.207,-0.092,-7.887,31.84,-167.98,597.56,-13.256,-4.785,-9.329,-14.48,36.87,556.54,-7.383,-6.809,-7.971,-35.37,196.15,459.85,-8.256,-5.111,-6.434,-18.83,229.36,321.94,-7.123,-4.378,-4.311,-11.03,201.26,166.58,-7.444,-2.405,-4.155,-13.95,224.74,71.01,-6.66,-1.98,-1.682,-3.45,289.6,27.71,-4.715,-0.069,-0.42,1.66,271.69,5.45,0.918,-1.579,3.296,13.19,334.12,14.41,11.926,0.608,52.298,4.97,183.19,4.93,60.62,23.763,541.087,109.444,325.393,550.636
0115-CHARI-05-182,1 3/4 Salto vw C,12.477,2.109,50.289,43.12,-242.59,9.85,-6.59,-0.448,-5.033,16.67,-393.83,21.45,-22.7,-0.429,3.477,18.61,-462.17,-7.28,-37.969,-2.583,-5.207,28.49,-625.4,-8.24,-45.93,-2.007,-18.563,45.32,-682.46,2.94,-49.85,-3.647,-22.193,72.03,-729.1,18.23,-30.599,-2.772,-26.698,40.66,-626.18,44.37,-10.876,-1.008,-14.114,2.74,-224.49,-6.82,-7.001,-1.415,-11.683,-13.14,-43.96,-0.54,1.828,0.215,-10.224,-15.87,-47.93,-42.24,0.079,0.868,-3.382,0.88,-167.6,-16.65,-0.806,0.241,-4.294,12.79,-276.71,-0.34,-1.614,0.339,-5.043,15.64,-275.1,2.15,-2.357,-0.125,-3.448,9.97,-320.37,-7.15,-5.378,0.533,-3.539,22.29,-348.89,2.78,-7.937,-0.478,-5.244,12.74,-370.93,-0.22,-7.806,1.239,-7.685,-5.58,-357.45,35.67,-7.461,0.342,-6.179,-2.45,-361.27,16.61,-19.734,-2.121,-13.629,-14.8,-365.93,25.13,-31.913,3.098,17.257,12.61,-232.14,1.44,34.274,-658.578,32.96,47.124,666.082,52.522
20190930-1247-FRANKFURT_2-01-111,Schraubensalto,9.42,-0.744,50.863,-15.38,223.49,77.92,1.122,0.291,-2.043,4.69,231.14,79.64,-2.253,2.131,-5.627,75.27,198.83,99.61,-0.562,4.382,-3.481,110.93,140.09,165.76,-1.161,0.449,-3.575,164.97,106.25,175.22,-3.703,-0.281,-2.855,201.04,88.68,187.17,-3.735,-0.473,-1.841,243.34,53.17,245.2,-5.644,0.61,-0.698,265.61,-23.75,303.09,-7.621,0.162,-0.721,237.71,-86.86,374.9,-9.406,-2.513,-3.363,117.72,-114.32,396.66,-8.525,-3.329,-7.198,1.75,-114.92,403.13,-6.795,-3.346,-9.204,-43.54,-72.16,422.88,-5.9,-4.929,-8.431,-49.01,37.56,395.57,-5.433,-4.854,-7.304,-43.09,134.74,342.69,-4.4,-4.576,-6.6,-62.97,237.17,216.68,-5.669,-2.919,-6.901,-58.08,233.23,139.82,-5.898,-2.389,-5.394,-45.6,248.73,104.24,-5.708,-3.179,-4.743,-39.52,236.37,48.3,-4.806,0.888,-0.476,-20.18,267.87,44.88,8.967,0.496,39.016,24.42,284.82,2.59,90.957,207.622,370.582,164.579,281.797,376.024
0115-MORITZ-03-11,Salto C,11.105,-3.384,47.365,1.95,145.6,-31.1,-2.356,0.989,-4.463,13.16,-56.03,47.03,-7.938,-0.662,-5.985,-0.07,-96.96,16.37,-2.754,-1.25,-8.508,-22.93,108.02,1.55,-6.134,0.511,-14.292,-47.7,570.6,15.61,-13.525,-0.564,-5.658,-20.21,545.67,31.38,-19.287,0.448,-25.539,9.74,411.9,28.36,-8.779,-1.527,0.087,-9.32,269.76,33.07,-2.235,-0.575,-0.932,9.63,167.62,21.6,-0.868,-0.861,-3.29,1.69,150.4,8.08,-0.867,-0.27,-3.134,1.95,150.72,6.93,-1.437,-0.413,-3.019,13.39,148.55,6.5,-1.268,-0.432,-2.637,12.46,135.27,3.65,-1.338,-0.599,-2.422,14.98,126.12,3.84,-1.077,-0.618,-2.471,10.94,123.99,0.44,-0.999,-0.362,-1.55,-0.15,104.12,-5.21,-1.315,-0.035,-2.327,-3.33,44.48,-4.49,-3.728,-0.307,-2.708,-13.34,-21.73,19.32,-3.56,-1.931,1.024,-1.76,41.94,45.18,24.435,-4.116,27.858,32.14,273.13,-20.77,0.88,343.881,21.355,27.72,383.741,43.025
20191007-1524-FRANKFURT_1-01-59,Barani A,3.387,9.15,52.837,-83.98,-183.01,121.98,-5.066,-3.223,-8.736,-145.32,-325.94,134.3,-4.284,5.529,0.222,-103.82,-140.0,65.43,-6.31,0.554,-5.31,-67.86,-124.07,58.89,-4.869,-0.635,-5.98,-45.43,-113.95,50.02,-2.635,0.233,-6.356,-64.67,-143.92,75.72,-2.688,-0.161,-7.167,-109.55,-192.87,99.88,-2.488,0.876,-8.757,-137.0,-189.76,126.83,-3.132,1.211,-9.374,-140.76,-149.02,213.19,-4.098,-1.405,-9.539,-131.42,-69.81,250.8,-3.394,-2.377,-8.63,-136.76,5.23,279.77,-3.776,-3.513,-7.621,-117.19,63.93,283.47,-3.812,-3.926,-6.878,-85.74,123.49,249.91,-4.18,-3.299,-6.193,-55.15,153.64,193.37,-4.425,-2.739,-6.105,-41.55,171.77,144.33,-4.629,-2.203,-5.842,-13.98,184.24,123.92,-5.968,-2.786,-6.367,-10.97,183.7,79.88,-8.978,-2.292,-4.583,12.93,246.61,60.36,-4.148,-1.658,3.244,52.15,286.82,6.48,4.539,1.596,31.184,35.87,393.62,-102.42,-115.17,15.056,194.448,133.235,290.477,232.906
20190930-1153-FRANKFURT_1-01-239,Barani A,4.647,2.018,58.903,40.49,-103.26,18.94,3.407,-0.023,-3.036,18.31,-206.81,72.71,-3.812,0.491,-5.361,-13.07,-89.01,107.64,-3.738,0.419,-1.652,-47.39,-88.73,93.25,-3.208,0.937,-4.535,-66.41,-191.65,80.44,-3.684,0.503,-5.648,-94.53,-174.72,88.26,-2.258,1.264,-7.154,-128.6,-144.68,116.59,-2.135,2.007,-8.857,-162.62,-131.28,150.0,-1.843,0.825,-9.98,-202.6,-92.59,183.45,-2.137,-0.86,-9.698,-217.79,-26.88,208.73,-1.467,-2.467,-8.66,-204.71,35.42,215.23,-1.932,-2.621,-7.799,-174.29,74.61,198.01,-2.095,-2.814,-6.615,-127.98,115.92,181.06,-2.115,-1.833,-6.396,-87.41,120.87,160.87,-2.437,-1.221,-5.023,-49.73,104.24,130.36,-2.955,-0.161,-6.191,-14.38,103.3,112.5,-3.272,-0.916,-5.65,6.39,114.22,88.2,-4.367,-2.063,-5.716,34.18,157.8,50.21,-3.116,-1.756,0.465,39.7,237.95,14.66,9.539,-1.532,38.447,56.95,310.93,-33.75,-125.107,19.637,193.503,161.422,244.36,207.86
0609-4-01-494,Fliffis B,16.417,0.744,41.24,-38.9,-290.57,53.22,-22.035,3.683,-24.088,-76.35,-568.34,61.02,-33.744,-0.592,4.134,-77.26,-651.09,7.74,-40.11,0.547,-4.911,-14.41,-680.69,-24.3,-40.999,-1.682,-2.407,24.19,-594.65,35.01,-41.213,-0.888,-4.898,29.92,-599.75,53.68,-23.448,-1.574,-10.367,3.22,-509.17,56.51,-12.47,2.069,-8.871,21.04,-124.61,103.93,-13.793,9.262,-12.047,21.8,-5.74,221.84,-12.984,4.242,-9.075,-58.83,-107.53,360.36,-10.825,-1.168,-18.064,-216.67,-49.55,362.61,-8.717,-2.326,-21.003,-265.48,79.38,345.68,-8.112,-4.718,-18.269,-213.9,223.57,297.27,-7.035,-5.041,-12.687,-148.58,266.67,227.21,-5.508,-3.161,-11.327,-85.34,213.76,147.61,-6.156,-1.899,-12.295,-34.67,170.77,77.7,-9.601,-0.461,-12.963,-24.99,189.79,52.5,-13.545,-1.116,-11.871,-0.03,274.75,60.82,-16.693,-1.411,-4.799,15.33,384.53,34.12,4.665,-2.145,34.246,7.44,422.07,-20.67,-102.122,-180.793,228.47,132.415,604.997,245.54
20191007-1150-FRANKFURT_2-01-152,Rudi,11.609,1.207,52.067,-19.71,-130.69,20.88,-1.499,3.231,0.166,-27.6,-311.27,112.56,-3.074,0.527,-1.655,-80.5,-255.57,168.98,-7.41,5.32,-6.638,-106.59,-239.19,252.96,-5.954,6.938,-8.917,-137.06,-166.38,419.52,-14.898,13.638,-8.177,-93.86,-122.48,544.52,-19.975,8.231,-7.483,7.77,-27.5,702.36,-26.936,4.591,-2.548,168.45,16.25,666.39,-21.182,-0.844,2.684,283.01,54.89,673.63,-22.621,1.321,6.32,342.3,-34.36,800.45,-25.736,0.978,1.524,196.85,-134.01,839.42,-20.106,-4.481,-8.92,17.52,-37.28,783.76,-13.116,-2.888,-12.391,-54.28,124.92,583.31,-9.92,-1.709,-9.384,-17.3,166.53,398.24,-12.991,1.016,-8.687,39.84,145.58,276.28,-9.31,-3.493,-4.234,10.01,173.58,89.78,-8.544,-1.826,-4.033,44.58,265.78,121.88,-8.519,-1.963,-0.172,80.53,305.4,112.21,1.155,-2.051,0.878,105.03,342.05,94.56,17.953,-3.824,35.316,152.92,295.59,-56.67,73.812,39.244,580.56,160.529,272.941,599.751
0609-1-01-41,Salto C,10.379,1.756,50.829,25.69,170.38,-40.88,-1.266,0.133,-1.459,-4.73,67.65,-19.65,-5.638,0.171,-4.06,-1.01,-47.83,10.03,-4.587,-0.824,-10.397,-8.61,8.26,-7.82,-2.223,0.646,-15.674,-38.48,457.5,-11.24,-15.962,1.255,-16.504,-15.44,655.94,35.08,-26.899,1.609,-16.667,23.19,604.54,41.22,-13.524,0.472,-4.905,55.63,454.32,26.27,-3.555,-0.513,-0.491,51.75,281.09,-12.95,-1.232,0.212,-1.533,15.54,170.83,-23.05,0.569,-0.846,-1.672,20.14,136.09,-6.8,-0.483,-0.237,-2.641,24.98,140.85,-14.18,-0.449,-0.191,-3.051,28.06,136.41,-9.23,0.029,-0.38,-2.219,21.38,132.23,-10.24,0.465,-1.148,-2.428,11.95,122.31,-9.48,0.053,-0.198,-2.298,0.66,88.3,-9.33,-2.327,-0.317,-3.15,-10.72,57.87,-4.33,-5.367,0.094,-0.91,-19.15,23.61,-7.6,-2.923,-0.787,4.623,-17.99,26.3,6.16,18.809,1.31,41.304,45.71,137.92,28.57,21.299,357.008,-4.634,45.485,377.077,39.362
0609-1-01-773,Bauchsprung,0.018,-0.961,53.908,1.69,32.16,-11.06,-0.016,2.26,9.262,-17.52,-30.06,7.82,3.436,-1.247,0.053,-18.89,-65.37,-2.74,-0.449,-0.286,-0.405,-7.06,-23.97,3.67,0.064,0.009,0.255,-5.21,-39.37,2.99,-0.268,0.059,0.451,2.15,-45.42,15.98,-1.035,-0.585,0.527,-7.49,-61.87,-23.67,-1.161,0.01,-0.114,-12.56,-115.75,-22.25,-0.977,0.078,0.087,-14.13,-141.81,-5.31,-1.972,-0.241,-0.417,-1.59,-123.83,10.74,-1.285,0.152,-1.214,7.16,-73.73,-4.94,0.376,-0.901,-1.666,17.46,-64.85,-22.95,0.618,0.005,-0.717,5.76,-93.93,15.7,0.615,-0.715,-0.86,13.52,-70.73,5.87,0.688,-0.928,-1.195,0.18,-49.53,3.29,-0.005,-0.028,-1.21,-3.09,-18.26,-0.73,-1.141,-0.496,-1.512,-16.6,23.92,21.74,-1.242,-0.413,-2.08,-8.78,102.87,-7.5,4.773,1.622,0.877,-30.68,182.67,-34.15,43.725,-2.566,28.441,-15.97,119.64,-44.98,-8.055,-39.84,-9.826,21.187,133.735,32.309
20191008-1157-FRANKFURT_1-01-332,Salto B,-1.557,1.711,44.899,15.49,260.04,8.31,1.392,-1.401,1.24,-6.96,123.71,-22.57,-4.485,0.183,3.792,17.08,4.18,8.58,-7.551,-0.931,-11.683,-1.17,-213.66,17.61,-10.894,0.487,-8.588,0.3,14.81,13.31,1.314,-1.607,0.192,22.35,63.47,-23.71,5.823,-1.713,-4.366,17.83,262.63,-10.19,-0.428,-0.542,-15.129,49.29,565.43,-6.82,-7.119,-1.279,-21.528,86.92,642.88,-15.89,-12.385,-0.194,-22.345,121.36,581.35,-8.41,-14.143,-2.48,-20.65,78.56,381.12,-75.68,-4.831,0.77,1.904,13.51,271.06,-70.9,-3.912,-1.369,0.956,8.87,136.71,-26.96,-1.107,-1.236,-3.12,7.57,59.23,-38.28,-1.824,-0.659,-5.436,0.89,68.11,-35.55,-3.0,-0.079,-4.797,1.28,90.05,-9.22,-2.196,-1.307,-3.571,9.21,139.45,-28.69,-6.18,-1.279,-0.323,-33.06,146.42,-19.44,2.34,1.403,5.253,-54.72,209.21,-41.11,15.3,2.848,48.267,-44.51,217.8,-3.15,24.23,328.993,-27.167,52.288,394.825,58.744
20191007-1534-FRANKFURT_2-01-78,Salto A,6.834,6.651,52.262,-50.6,235.92,-20.85,-3.345,-2.604,2.563,-69.51,272.14,-26.35,-1.603,-0.98,-4.172,5.7,266.04,-25.5,0.062,-0.657,-3.949,-18.01,280.91,-12.5,1.132,-2.043,-5.292,-21.2,224.63,-9.58,1.784,-0.956,-7.187,-10.7,183.5,-10.84,0.443,-1.799,-8.077,-4.93,178.44,-23.46,-1.351,-1.737,-8.07,-4.94,192.97,-33.11,-1.018,-1.853,-7.435,-6.94,192.21,-37.57,-2.046,-2.098,-7.44,-15.33,199.09,-40.98,-2.714,-2.045,-7.373,-19.89,200.35,-31.35,-2.799,-2.155,-6.959,-19.48,200.88,-35.46,-2.99,-2.186,-7.005,-19.9,203.02,-18.77,-3.735,-2.116,-6.92,-21.95,197.78,-5.3,-4.859,-1.795,-5.902,-22.0,189.31,-7.69,-5.455,-1.003,-6.529,-24.67,193.15,-11.7,-7.021,-0.87,-4.775,-10.61,197.63,-25.31,-8.238,-1.253,-1.008,-11.92,204.46,-40.14,-0.277,0.676,7.875,-20.47,204.45,-49.78,17.673,8.034,46.097,22.58,275.69,-6.67,-28.48,346.718,-35.649,35.584,349.516,48.481
0827-BK1-01-4,Salto C,9.69,0.464,50.433,22.56,168.83,6.96,0.254,2.619,0.951,-1.24,-64.85,22.44,-8.653,0.168,-5.432,-1.09,-83.0,33.32,-4.522,-0.944,-8.667,-6.44,50.8,4.39,-7.094,-0.583,-11.331,-24.16,512.16,-1.29,-13.408,0.188,-9.157,2.93,620.87,5.21,-18.808,1.096,-24.899,21.77,503.53,22.85,-11.639,-0.972,2.103,7.75,320.4,-12.65,-3.543,0.972,-1.311,0.76,190.99,-3.89,-1.441,-0.123,-3.192,8.56,172.92,0.89,-1.946,-0.337,-2.369,6.74,166.38,0.66,-1.278,0.079,-2.723,1.07,156.19,-1.1,-1.738,-0.642,-2.559,0.63,155.37,1.25,-1.163,-0.42,-2.321,1.61,141.7,-11.78,-1.117,0.442,-2.242,-3.9,114.33,-3.87,-2.195,0.319,-2.512,-8.14,85.39,11.08,-3.364,0.025,-1.191,-3.43,54.9,6.2,-3.987,-0.098,0.748,-6.64,30.68,6.57,-0.377,0.012,0.984,8.08,93.45,20.32,20.64,-1.962,32.869,17.1,237.34,17.45,6.871,355.593,9.022,21.571,388.923,29.996
0609-4-01-189,Schraubensalto C,5.459,1.011,51.239,46.59,262.28,112.49,-1.318,1.443,4.509,74.13,217.29,140.12,-1.664,0.03,-2.432,95.31,104.87,113.72,-1.316,-0.22,-3.164,109.54,90.93,164.88,-4.26,2.47,-1.846,195.53,93.73,244.75,-8.765,3.032,3.599,268.97,7.7,377.79,-12.215,-4.065,3.867,254.34,-148.32,463.62,-14.893,-3.245,-0.966,148.15,-212.17,513.69,-13.684,-2.746,-8.25,15.1,-156.14,516.23,-11.608,-3.68,-9.68,-59.54,-40.49,470.28,-9.241,-3.762,-8.316,-73.3,64.91,389.02,-5.269,-4.089,-6.019,-50.25,139.47,291.23,-4.678,-2.981,-5.603,-11.65,154.81,227.14,-4.294,-1.839,-4.702,-6.93,168.0,138.34,-3.721,-0.653,-3.867,-4.32,146.0,89.29,-3.779,0.45,-4.674,13.93,153.14,62.88,-4.691,-0.643,-4.908,20.27,169.23,45.57,-6.839,-0.517,-4.883,53.88,198.37,28.1,-4.655,0.683,-0.963,43.16,231.98,-1.15,11.897,2.896,39.354,5.21,284.99,19.45,103.601,183.365,396.418,143.41,287.872,400.713
0115-MORITZ-03-25,Salto C,13.567,-0.426,47.151,42.7,139.63,-9.21,-3.51,1.066,-3.278,-37.04,-49.66,32.95,-2.194,-0.306,-3.554,11.62,-6.84,19.14,-2.516,-1.003,-4.929,2.11,88.11,13.18,-4.613,-1.017,-5.194,-1.63,209.82,-3.29,-7.418,-1.119,-4.179,-13.71,289.3,-0.87,-9.091,-1.317,-2.818,-11.08,281.9,-13.4,-7.476,-0.989,-2.772,-15.04,269.11,-14.0,-6.561,-0.795,-2.241,-17.19,248.61,-13.05,-5.744,-0.608,-2.607,-18.03,231.67,-4.03,-4.782,-1.038,-3.011,-22.03,209.54,-10.34,-4.253,-1.048,-2.824,-17.04,192.8,-1.4,-4.068,-0.785,-3.049,-20.34,199.08,-12.81,-5.516,-1.017,-3.172,-21.97,223.65,7.51,-4.881,-1.399,-1.222,-25.45,211.67,20.65,-3.505,-1.082,0.222,-17.75,173.89,17.24,-1.974,-0.589,0.124,-2.64,146.1,17.52,-0.638,-1.361,-0.012,4.96,105.5,0.81,1.1,0.335,-0.361,-25.32,101.2,-2.18,23.254,-3.625,30.632,5.12,108.03,-12.12,-18.833,342.335,2.05,38.468,354.82,32.536
0609-4-01-110,Schraubensalto C,8.311,6.045,48.337,101.97,235.98,117.84,-0.038,-4.717,2.248,63.95,214.76,110.19,0.438,4.509,-2.257,76.36,90.25,89.27,-2.709,0.291,-3.542,101.18,99.79,148.65,-3.92,1.986,-2.685,163.74,94.01,212.07,-6.867,1.977,2.934,258.19,30.14,314.48,-6.861,-1.885,1.52,244.76,-106.03,366.43,-9.725,-2.473,-0.417,172.83,-173.83,399.01,-11.179,-2.355,-5.119,44.5,-190.73,428.65,-9.993,-1.834,-9.852,-70.94,-122.74,443.41,-8.471,-3.275,-11.045,-118.47,-2.87,406.68,-6.247,-4.349,-8.848,-116.39,105.9,339.51,-4.377,-4.233,-6.535,-102.58,161.96,237.16,-3.235,-2.489,-5.018,-84.26,147.45,159.8,-2.982,-1.155,-4.689,-67.03,127.9,137.41,-3.621,-0.261,-4.88,-40.57,116.43,119.8,-4.058,-0.39,-5.232,9.99,124.49,117.67,-5.585,-2.594,-4.631,73.94,151.47,72.04,-1.873,-1.295,-1.481,25.33,212.72,-22.94,17.712,-0.102,38.845,-26.49,273.24,-69.08,66.967,154.213,380.384,185.563,267.375,402.435
20191008-1157-FRANKFURT_1-01-54,Salto A,-6.611,1.623,43.631,-19.04,291.44,4.5,-1.592,-1.594,-4.545,-19.87,269.12,-45.78,0.083,-0.689,2.61,35.4,230.91,-88.34,6.276,0.328,-6.111,-22.16,191.06,-1.32,2.215,-2.252,-6.604,-43.09,136.73,-9.85,0.56,-0.383,-8.256,-40.37,178.14,6.71,-0.532,-2.088,-7.448,-26.94,208.77,-10.96,-1.364,-1.013,-6.103,-24.29,229.45,-4.27,-1.028,-1.28,-6.232,-15.57,221.33,7.04,-0.791,-1.109,-6.052,-11.26,202.08,-6.74,-0.547,-1.284,-5.652,-11.34,186.24,-6.52,-1.264,-0.881,-5.576,-6.36,171.58,-7.43,-1.745,-1.205,-5.201,-0.39,141.54,-9.15,-1.974,-1.58,-4.41,4.61,110.51,-0.85,-2.847,-2.126,-6.14,-14.65,108.13,-26.46,-3.592,-1.062,-6.34,-32.44,126.02,-17.5,-3.591,-0.538,-4.808,-27.59,165.63,-4.57,-5.236,-0.277,-2.626,-35.79,236.91,-4.99,-6.495,-3.205,3.422,-14.59,330.08,-3.58,9.055,2.682,43.546,-47.31,315.91,20.25,-28.544,342.627,-17.791,41.641,342.627,41.101
20191007-1524-FRANKFURT_1-01-77,Fliffis- Rudi C,9.175,6.249,33.508,-77.36,-355.71,235.81,-33.087,3.447,-21.28,-79.05,-576.69,-139.46,-38.274,-3.625,-0.549,-5.45,-657.87,-17.27,-41.765,-5.874,-12.395,73.14,-633.12,26.57,-55.163,-8.492,-19.639,61.04,-645.64,75.3,-48.261,-6.214,-22.505,25.4,-684.8,123.36,-52.35,0.646,-33.674,-12.93,-740.94,165.52,-42.454,2.778,-35.728,-113.6,-706.5,220.5,-29.463,10.005,-27.425,-134.11,-526.29,389.25,-26.902,10.2,-21.146,-5.21,-288.37,705.75,-43.392,12.557,0.815,533.38,-174.85,944.97,-40.701,-0.892,9.847,555.08,323.85,1012.52,-43.973,-9.776,26.253,682.84,-72.83,992.43,-54.819,-18.773,3.135,551.54,-139.66,1085.37,-28.98,-28.124,-4.614,217.58,310.53,909.84,-8.888,-10.976,-11.016,61.19,336.85,461.47,-14.837,2.432,-10.179,101.76,294.97,309.5,-17.73,-0.656,-4.141,189.98,382.17,198.51,-2.201,-7.593,-0.027,147.4,411.25,-105.76,22.377,2.43,43.014,43.84,204.95,-59.99,210.705,-314.694,568.671,298.428,675.452,657.808
20191008-1157-FRANKFURT_1-01-368,Barani A,12.745,-0.303,54.928,5.36,-201.08,20.03,-7.55,2.134,-1.3,24.78,-337.51,27.19,-6.804,2.202,-4.33,1.96,-123.51,78.51,-6.227,-0.386,-6.161,-11.14,-96.23,126.9,-3.374,0.919,-6.185,-37.39,-92.62,133.11,-4.099,1.431,-3.582,-110.99,-152.32,158.97,-3.824,0.905,-7.801,-143.64,-173.44,157.77,-1.654,1.037,-10.357,-167.11,-132.87,202.42,-1.956,0.07,-9.133,-173.34,-68.26,259.48,-2.919,-0.836,-8.536,-146.05,-7.6,309.98,-3.532,-2.819,-8.53,-97.32,58.82,309.91,-3.768,-4.061,-6.831,-55.72,112.91,252.7,-3.511,-4.193,-6.238,-14.76,141.61,143.45,-2.794,-2.576,-6.071,-1.39,159.84,44.54,-4.399,-1.498,-6.363,-7.26,180.58,10.64,-6.573,-2.002,-6.293,-17.61,234.66,16.84,-6.666,-2.268,-6.295,-39.96,268.01,13.25,-8.466,0.143,-1.048,-16.92,294.86,10.65,-5.169,-1.979,5.1,2.61,355.24,-17.24,5.902,-0.357,44.152,-22.3,361.03,-81.73,-81.019,63.997,170.765,91.097,294.346,193.555
0609-4-01-233,Schraubensalto C,7.108,2.421,49.228,39.95,262.49,72.93,-0.488,2.674,4.149,87.33,263.72,152.36,-0.977,0.761,-2.038,100.53,102.46,138.02,-1.794,-0.785,-3.681,114.17,96.23,181.68,-5.311,3.513,-0.682,219.12,92.86,259.98,-10.408,2.306,5.244,299.88,-20.54,419.27,-12.807,-5.387,1.922,245.11,-166.13,480.35,-15.246,-5.453,-3.737,130.48,-184.6,510.79,-11.971,-3.796,-8.679,-31.09,-117.59,500.85,-10.126,-3.465,-10.625,-100.12,0.4,444.94,-7.692,-4.548,-8.567,-100.96,101.74,349.58,-4.996,-3.813,-6.641,-67.99,166.06,263.32,-3.598,-1.511,-5.673,-53.42,184.03,192.53,-3.793,-0.542,-5.328,-22.03,161.44,151.63,-3.923,-0.525,-5.214,-0.82,165.32,99.34,-4.653,-0.959,-3.892,6.94,159.71,52.95,-4.673,-0.08,-4.218,15.11,151.87,33.12,-5.915,0.265,-2.512,30.11,166.2,39.71,-2.958,-0.932,1.264,42.23,188.39,38.95,10.494,-1.096,39.424,38.53,264.41,-3.04,91.285,192.331,395.99,160.573,287.587,398.567
20191008-1207-FRANKFURT_2-01-138,3/4 Salto rw A,1.682,10.005,44.516,31.68,172.94,-30.89,-1.135,-4.652,-7.024,-8.18,112.27,-50.86,-1.097,0.363,0.241,-5.26,86.5,-44.57,1.648,-1.029,-2.701,7.5,43.02,-18.93,0.158,-0.968,-4.699,-3.31,67.66,-31.9,-1.031,-0.502,-4.976,-16.92,108.49,-12.61,-2.125,-1.264,-4.143,-13.11,180.94,-24.15,-3.311,-0.721,-3.833,-10.42,204.41,-0.8,-1.855,-0.869,-2.304,-21.87,197.25,-19.95,-0.605,-1.33,-4.159,13.14,200.81,-16.0,-2.391,0.307,-3.419,22.59,202.97,23.99,-0.935,-1.898,-2.244,35.21,178.84,14.72,-0.704,-1.326,-3.016,12.41,170.21,-54.67,-0.475,-0.751,-3.613,13.39,185.23,-34.74,0.716,-0.977,-3.798,17.71,193.35,-24.55,0.469,-1.629,-5.557,14.62,182.05,-37.02,-1.204,-1.439,-5.139,10.69,193.51,-32.15,-7.014,0.137,-4.039,33.81,232.88,-11.83,1.551,-0.405,-2.847,52.19,281.13,-102.96,47.259,6.964,22.162,-0.44,102.8,-111.91,20.15,300.37,-60.094,35.528,302.893,73.601
0110-MORITZ-01-48,Doppelsalto C,9.119,-3.075,56.636,-29.62,199.99,-13.8,-2.634,1.593,-5.752,2.02,10.71,7.18,-7.882,-2.096,-9.493,9.27,44.41,-16.23,-15.961,-0.515,-10.194,-0.33,187.06,0.0,-25.584,-1.35,-7.964,-23.28,464.0,11.5,-32.754,-3.355,-4.111,-34.49,584.76,22.81,-38.523,-2.179,-5.845,-29.14,627.75,19.01,-41.043,-2.274,-7.443,-26.4,653.87,12.76,-42.952,-2.396,-8.558,-30.52,664.5,5.59,-41.993,-1.99,-12.374,-30.12,684.96,16.1,-41.105,-1.156,-11.488,-19.04,724.34,14.33,-25.583,-1.431,-6.563,1.31,583.79,9.17,-16.402,-1.11,-6.364,15.79,394.47,11.75,-11.411,0.14,-7.517,25.74,292.36,13.99,-7.905,0.087,-5.724,29.54,220.24,10.28,-5.977,-0.586,-5.615,23.75,254.48,-0.41,-8.028,0.369,-5.63,46.52,266.63,-12.67,-5.354,0.658,-0.704,33.64,270.36,5.51,-1.406,0.88,-2.271,22.47,187.1,12.92,21.786,-2.844,30.024,15.35,182.75,-3.65,-1.343,711.669,9.378,48.037,715.478,37.896
0110-MORITZ-01-127,Voll- ein- voll- aus B,-0.147,-7.539,43.719,-85.5,419.7,-89.05,-8.081,-11.697,-4.148,-276.57,258.32,-253.1,-14.8,-3.73,3.585,-365.71,97.28,-411.06,-31.301,1.959,10.906,-404.32,-157.15,-718.58,-42.816,3.915,-7.49,-376.8,-285.89,-930.86,-49.911,5.889,-16.688,-330.64,319.04,-1055.36,-31.512,-9.097,0.193,-649.82,421.67,-642.62,-27.963,17.354,16.506,-810.44,-122.48,-494.13,-35.849,31.727,-19.746,-440.87,-561.68,-286.17,-41.511,14.203,-23.311,-268.89,-785.1,-104.1,-40.037,11.457,-9.032,-273.45,-685.46,-169.44,-24.209,3.99,-11.144,-129.05,-354.12,-386.25,-16.335,-6.694,-14.713,-41.33,4.64,-539.1,-17.149,-8.753,-11.441,-105.39,139.32,-504.86,-5.445,6.177,-16.72,162.77,210.15,-244.12,-6.452,2.812,-15.017,137.58,170.48,-239.62,-10.159,2.228,-14.582,37.45,125.77,-170.43,-12.331,3.818,-15.074,1.28,186.74,-38.6,-18.462,1.221,-2.641,-1.91,384.33,5.52,16.427,-2.332,40.888,79.06,425.54,86.09,-381.794,36.294,-673.965,463.26,595.048,692.208
0609-1-01-97,Von Bauch in Stand,51.541,1.738,29.968,3.21,-41.85,-4.62,9.092,-0.171,-2.735,4.62,-114.21,43.38,-2.778,-0.942,-0.756,17.24,30.64,-5.79,-0.467,0.482,-1.73,23.35,30.35,15.8,-1.947,0.137,0.315,32.24,25.91,29.53,0.186,-0.786,-0.475,18.25,22.11,20.33,0.958,-0.546,-0.578,10.15,15.92,-5.91,0.367,-0.251,-0.575,7.7,26.96,-5.1,-0.056,-0.046,-0.02,4.8,29.94,5.39,0.201,-0.072,-0.987,1.5,31.31,15.07,0.015,-0.763,-0.218,2.49,30.48,0.3,-0.027,-0.775,-0.704,-3.43,32.33,-11.36,0.107,-0.395,0.25,-6.65,27.65,-13.76,-0.178,-0.055,-0.351,-4.68,14.81,-13.7,-0.322,-0.643,-0.933,-3.03,0.06,-9.0,-0.244,-0.025,-0.222,-7.02,-5.94,2.83,-1.892,0.553,-0.373,-9.33,-21.5,28.39,-3.608,0.728,0.076,-28.75,-39.16,-0.88,11.572,-1.502,6.199,-10.1,26.55,0.59,21.544,-2.321,33.125,25.67,256.19,-23.29,8.051,45.989,2.767,23.614,85.698,32.349
20191008-1207-FRANKFURT_2-01-172,Barani A,2.064,0.395,53.736,-34.49,-245.61,54.38,-12.11,2.441,-16.773,-88.97,-335.7,39.35,-4.959,5.272,-3.03,-47.17,-151.13,121.12,-7.056,1.307,-6.926,-45.16,-79.38,91.15,-4.368,0.523,-7.507,-44.62,-54.37,72.22,-2.065,-0.504,-6.09,-91.0,-117.09,88.81,-0.378,1.402,-9.033,-142.51,-153.64,134.72,-0.266,-0.512,-10.318,-207.56,-120.39,165.8,-0.53,-0.099,-10.512,-242.79,-88.34,154.7,-0.135,-0.535,-10.199,-254.97,-26.31,217.01,-3.391,-2.287,-9.499,-204.52,26.63,284.05,-3.2,-3.179,-9.354,-138.53,88.69,259.72,-3.176,-3.484,-7.44,-79.74,133.63,206.93,-3.381,-3.17,-7.019,-43.49,165.79,137.35,-4.714,-2.004,-6.123,-18.81,178.22,92.4,-5.532,-1.793,-4.919,-8.96,190.46,64.27,-6.315,-0.366,-3.677,9.58,208.54,23.7,-5.842,-0.626,-2.102,27.5,228.11,42.28,-0.929,-1.26,2.571,35.07,276.12,-12.45,-1.47,2.696,37.659,64.83,349.49,52.19,-122.441,37.053,185.687,151.448,278.929,209.674
20190930-1153-FRANKFURT_1-01-219,Salto A,1.255,-0.25,52.065,6.79,186.56,-19.26,-2.065,0.756,-0.518,18.94,221.2,-5.88,0.742,-0.107,-3.263,11.02,97.29,16.43,1.502,-1.898,-4.393,-5.12,76.86,25.91,-2.199,-1.113,-7.013,16.52,170.76,30.51,-2.778,-0.774,-5.816,29.56,221.12,-8.17,-1.748,0.46,-5.94,16.77,230.79,-6.7,-1.451,-0.141,-4.7,22.26,217.17,-15.03,-1.855,-0.737,-4.549,15.13,203.0,-1.58,-1.749,-0.521,-5.606,14.52,207.33,-1.22,-2.351,-0.375,-4.989,19.57,200.45,-1.0,-2.318,-0.501,-4.154,29.74,184.13,5.29,-2.268,-0.642,-2.843,18.5,145.01,-11.25,-2.584,0.522,-3.8,0.56,109.56,-8.08,-1.603,-0.523,-4.863,-7.01,82.13,11.81,-1.534,-0.612,-4.923,-10.32,104.21,8.36,-1.984,-0.067,-4.796,-4.65,144.49,8.89,-3.473,-0.023,-6.6,21.01,192.96,46.98,-6.427,-2.847,-5.515,50.48,286.67,22.62,3.747,1.842,39.695,62.34,317.82,-19.68,31.561,347.337,1.274,37.636,347.337,32.579
20191007-1524-FRANKFURT_1-01-164,Doppelsalto B,-2.476,5.321,43.878,24.58,316.31,8.79,-0.847,-4.321,-7.205,-10.33,52.06,-9.72,-2.517,1.154,-14.045,5.59,49.7,-8.95,-10.607,-0.618,-19.293,10.79,124.61,-5.54,-23.389,1.472,-15.63,81.06,348.12,-20.75,-32.208,2.569,-13.605,66.15,692.55,-84.57,-32.604,1.122,-21.032,46.25,680.71,-59.8,-38.555,3.309,-24.724,56.87,688.5,-15.19,-39.548,4.108,-27.761,79.49,728.93,3.4,-41.868,4.892,-29.263,94.85,757.85,-16.32,-33.846,2.942,-31.079,111.36,784.4,-17.15,-31.326,3.998,-27.202,119.27,668.65,12.23,-20.045,2.869,-13.695,98.26,574.87,-38.93,-13.136,-1.311,-9.412,63.81,334.58,-62.71,-6.416,-0.444,-7.15,25.45,210.54,-57.95,-5.553,0.196,-8.75,16.33,166.24,-28.81,-7.95,-1.402,-9.822,5.34,182.74,24.43,-9.789,-2.129,-6.234,46.09,275.25,34.26,-6.249,-0.157,2.896,79.19,396.54,-20.7,11.407,2.408,48.232,136.74,371.6,-106.19,94.816,685.831,-34.503,99.807,691.934,69.468
0115-MORITZ-03-86,Doppelsalto B,9.637,-1.964,47.725,19.16,322.27,-1.36,-4.72,0.482,1.425,3.93,136.36,32.32,-10.662,1.5,-5.328,-13.28,23.18,43.45,-11.586,-1.172,-13.854,5.41,-71.34,12.04,-12.057,-1.433,-8.413,-18.12,129.36,-10.79,-28.895,-0.456,-3.657,-19.35,517.28,15.19,-41.194,-2.903,4.259,-12.72,678.87,22.98,-42.789,-3.32,4.3,-37.96,651.41,8.84,-42.098,-4.79,2.706,-54.69,658.86,7.2,-41.873,-3.816,-4.152,-62.69,715.88,15.07,-46.073,-3.759,-17.713,-48.61,779.08,9.35,-48.513,-2.317,-26.397,-26.83,854.38,9.61,-45.065,-5.43,-15.635,9.9,689.34,-28.13,-15.567,-2.5,-2.634,4.52,371.9,-60.09,-8.401,-0.517,-4.907,29.51,218.85,-27.79,-6.319,-2.87,-8.282,5.11,162.76,-1.18,-7.486,-2.148,-10.514,-45.66,180.54,-21.46,-10.162,0.959,-9.93,-32.48,275.44,-5.58,-6.353,1.069,-8.456,1.89,393.46,45.81,14.894,1.064,41.341,40.76,261.24,44.17,-22.838,709.015,8.854,53.346,726.318,45.845
20190930-1247-FRANKFURT_2-01-153,Schraubensalto,1.597,-0.374,53.498,-10.93,248.51,121.32,-1.691,-1.126,1.993,14.16,228.63,103.35,-0.771,-0.055,-4.107,63.16,185.13,100.53,0.852,1.82,-4.546,74.44,141.75,113.58,1.415,3.429,-3.114,120.2,87.52,163.61,-2.159,-1.041,-1.884,150.68,83.85,187.36,-3.603,-0.757,-1.072,199.72,67.17,200.2,-3.566,0.022,-2.127,199.26,-1.03,235.17,-5.09,0.195,-1.247,200.32,-70.34,262.11,-6.879,-0.921,-1.707,168.23,-107.92,317.3,-7.82,-2.419,-4.381,66.77,-129.33,336.1,-6.533,-1.076,-7.156,-26.9,-156.86,376.84,-7.48,-2.163,-9.467,-21.07,-123.79,443.66,-8.052,-5.224,-8.077,17.41,20.79,461.12,-6.472,-8.593,-4.518,-7.59,163.11,346.81,-2.212,-5.349,-4.962,-54.39,189.04,166.86,-2.465,-1.641,-5.789,-51.15,213.52,73.76,-2.134,-0.326,-6.468,-31.45,240.29,91.16,-1.924,-1.099,-8.265,-26.0,282.13,75.64,20.422,0.181,35.541,-34.74,241.43,0.97,88.255,169.979,365.451,138.72,278.016,369.336
0609-4-01-566,Barani C,16.31,5.076,53.054,40.43,-84.99,89.97,-3.867,-2.681,1.689,-7.48,-234.15,88.95,-12.171,1.709,2.652,-30.07,-408.31,26.45,-16.511,0.902,-1.529,-11.59,-434.6,62.56,-12.71,0.303,-7.192,-5.65,-391.9,107.42,-6.96,-1.546,-7.321,-17.24,-240.96,133.07,-5.348,2.801,-9.406,13.83,-80.11,187.16,-6.595,1.266,-6.103,-11.37,-43.83,187.12,-6.847,1.401,-8.591,-35.11,-42.95,265.51,-3.115,-2.743,-3.1,-82.89,-38.73,266.17,-3.189,-1.019,-7.355,-94.06,13.32,243.12,-3.18,-1.428,-5.773,-91.71,70.61,239.05,-2.919,-1.576,-4.715,-77.39,108.1,211.88,-2.769,-0.978,-4.177,-48.85,120.42,179.23,-2.45,-0.693,-3.986,-28.68,116.93,152.91,-3.067,-0.861,-3.862,-6.56,108.07,115.6,-4.294,-1.62,-4.289,7.17,96.17,74.16,-6.631,-1.479,-3.676,19.17,121.72,52.92,-0.958,-1.158,2.764,36.98,174.87,40.09,17.478,-0.689,38.081,2.3,245.0,-6.37,-37.148,-72.155,234.723,65.194,286.689,241.7
20191008-1157-FRANKFURT_1-01-281,3/4 Salto vw A,5.83,1.454,46.234,-6.45,-98.52,24.75,2.833,-1.547,-2.492,15.96,-122.74,-4.45,-5.342,-0.126,-4.605,17.62,32.51,24.77,1.079,-1.313,-2.439,-2.02,11.81,-3.93,1.478,-0.66,-1.823,-10.66,-12.12,24.9,1.441,-0.7,-0.034,-16.31,-44.97,22.24,0.737,-1.29,-0.517,-17.52,-90.22,-5.57,-0.523,-0.322,0.179,-14.18,-143.79,-8.89,-0.213,-0.575,-0.886,-8.44,-172.75,-6.77,0.013,-0.648,-1.693,-0.66,-190.08,-3.51,-0.602,-0.114,-1.37,1.91,-176.57,8.98,-0.903,-0.505,-1.061,-3.87,-181.98,21.09,-1.099,-0.877,-0.615,-5.23,-218.33,8.84,-3.604,-0.548,-0.862,2.29,-282.51,5.6,-6.32,-0.888,-2.392,10.54,-322.39,13.18,-6.688,-0.504,-4.873,5.25,-330.06,2.7,-7.255,-0.606,-4.561,6.31,-314.47,15.63,-3.128,-0.721,-6.753,-14.08,-283.1,10.18,-6.562,0.561,-13.527,1.22,-213.64,21.01,-42.775,2.067,13.665,-5.65,-232.69,37.78,-3.919,-278.386,17.129,18.802,311.161,35.042
0609-1-01-808,Doppelsalto C,5.977,-1.613,52.304,45.39,289.62,-53.18,0.955,1.249,9.403,8.3,185.8,-18.96,-0.254,-0.544,-8.816,-25.63,32.39,-46.07,-5.757,-0.647,-19.238,3.8,87.26,2.79,-19.712,-1.516,-16.157,2.24,240.92,9.5,-32.967,-1.226,-16.875,-23.12,586.93,-21.48,-47.482,-1.411,-13.228,-14.79,709.25,5.53,-47.063,-3.633,-17.338,-32.41,735.9,-33.29,-50.93,-1.11,-20.658,-33.77,779.29,3.27,-51.443,-2.272,-22.353,-35.29,826.35,-9.72,-44.627,-1.992,-29.107,-14.2,857.53,-3.04,-41.022,0.879,-30.433,54.57,814.23,13.77,-27.639,-0.801,-18.664,55.47,650.49,-10.12,-15.752,-0.101,-14.091,63.74,464.34,-38.94,-9.711,0.05,-10.515,40.76,311.28,-65.51,-6.062,-0.494,-7.82,8.79,224.35,-35.71,-8.162,-1.366,-9.973,-28.77,216.52,-38.85,-11.574,0.432,-7.155,-35.08,212.92,-6.51,-6.058,-0.398,1.186,7.09,247.78,11.71,15.545,-0.326,41.296,-13.1,271.56,9.6,2.194,705.058,-23.533,49.431,705.476,51.083
0609-1-01-796,Bauchsprung,6.233,0.183,52.402,3.74,45.32,16.54,0.354,-2.095,6.185,-8.72,-1.51,-13.56,2.038,1.826,-2.121,-1.36,-11.97,4.67,-0.878,-0.535,0.054,5.21,-27.83,15.46,-0.168,-1.017,-0.064,-2.76,-28.64,1.51,0.126,-0.202,0.336,-7.72,-50.07,-10.91,0.12,0.272,-0.074,0.97,-67.93,-5.25,0.078,0.491,0.132,5.36,-60.99,9.26,-0.661,0.207,-0.123,-10.89,-81.94,-4.97,-0.908,0.125,-0.324,-11.21,-97.77,-10.81,-0.676,-0.016,-0.156,-14.27,-90.12,-6.38,-0.548,-0.641,-0.639,-5.44,-88.1,-22.4,0.553,-0.16,-1.513,-1.67,-80.43,-12.63,0.067,-0.041,-0.896,7.45,-50.06,1.53,0.045,-0.386,-1.287,-5.47,-32.15,9.04,-0.27,-0.452,-0.202,-35.8,-12.97,7.85,0.039,-0.032,-0.497,-3.62,6.37,-20.66,-0.181,-0.032,-1.192,10.93,30.98,0.03,3.128,-0.424,-1.05,8.08,114.98,27.06,42.319,-0.424,20.001,-4.4,92.41,-50.57,-7.352,-39.853,-3.653,17.82,110.477,29.461
20191008-1207-FRANKFURT_2-01-28,Salto A,-1.488,6.567,46.828,45.51,251.85,-74.05,-2.199,0.325,-6.701,-19.41,123.36,-54.56,0.052,-0.72,0.306,-12.39,68.61,14.16,0.592,-1.966,-9.681,5.37,11.11,-12.19,-2.012,-1.624,-9.81,6.49,124.78,9.08,-6.437,-1.453,-7.553,9.11,257.15,-23.21,-6.813,0.246,-5.694,37.41,295.42,-30.52,-5.524,-0.663,-5.836,38.27,292.41,-38.74,-4.835,-1.94,-4.865,13.53,266.89,-58.92,-4.066,-0.111,-4.394,10.75,229.5,-45.26,-2.96,-1.324,-5.581,6.26,216.66,-13.46,-2.973,-0.714,-5.156,11.4,208.04,-11.68,-3.02,-1.077,-5.315,15.87,198.97,-12.05,-3.243,-1.079,-5.521,22.3,179.64,-24.81,-3.446,-2.046,-5.845,3.08,182.09,-37.7,-4.571,-0.566,-6.487,-1.22,191.9,-21.32,-6.872,-0.33,-4.046,-9.08,193.66,-15.85,-6.537,1.201,-1.884,-26.75,262.3,3.53,-1.388,-3.041,3.119,52.73,218.85,19.48,9.439,4.041,46.373,49.25,290.89,20.94,28.261,345.403,-31.503,42.191,348.843,62.884
0827-BK2-02-25,Salto C,6.722,1.342,53.287,27.09,181.43,-43.15,-2.283,2.385,4.264,27.23,18.8,11.11,-4.498,-0.876,-6.073,6.12,-63.2,15.8,-4.874,0.045,-8.245,-24.46,-29.3,-66.94,-0.471,0.189,-9.394,-15.29,202.61,-118.26,-13.865,-0.999,-17.715,-22.61,602.59,-69.8,-25.687,2.192,-13.354,15.17,624.5,-11.16,-23.548,1.543,-8.645,32.53,523.01,17.49,-6.204,0.391,2.214,28.24,324.84,-25.43,-3.004,0.527,-0.248,22.31,192.69,-36.92,-0.615,0.436,-1.774,24.65,122.97,-30.69,-0.968,0.651,-2.088,19.25,105.57,-32.16,-0.97,0.451,-3.179,16.99,111.81,-39.76,-0.408,0.588,-2.871,17.42,104.73,-39.46,-0.96,0.813,-3.065,14.74,97.89,-32.66,-1.131,0.598,-3.275,2.62,97.74,-34.06,-1.501,0.161,-3.394,0.11,89.33,-36.06,-4.681,0.398,-1.997,-33.26,84.9,14.67,-3.669,-1.804,2.554,6.51,127.76,49.29,14.369,0.651,42.841,20.27,165.78,-18.04,18.02,337.653,-48.517,36.502,358.913,71.256
20191008-1157-FRANKFURT_1-01-367,Salto B,-5.403,2.955,47.79,-9.27,286.03,4.81,-1.275,-1.689,1.497,-37.66,208.26,-42.48,0.897,-0.503,4.807,13.11,47.84,16.72,-7.875,-1.454,-11.443,21.43,-134.52,17.33,-12.683,-1.333,-14.105,-0.62,-198.5,3.66,2.494,-0.657,0.81,-1.33,22.64,-28.18,9.135,-0.465,-8.243,-25.28,370.25,8.7,-4.033,-2.829,-19.163,-34.52,552.4,-34.67,-13.595,-1.243,-19.84,-67.52,597.88,-21.9,-16.996,-1.392,-19.623,-36.33,482.88,-4.16,-11.968,-1.711,-0.416,34.03,396.05,-4.89,-5.671,-1.07,-0.28,4.64,227.22,18.95,-2.341,-1.693,-3.067,-24.47,141.57,9.04,-2.424,-1.063,-4.985,-11.89,100.94,-3.41,-3.778,-0.633,-4.211,7.98,105.83,-18.89,-4.801,-0.471,-3.025,15.22,137.25,-10.51,-4.064,-1.034,-0.579,13.71,166.77,-3.95,-3.363,-0.148,-0.243,-3.45,191.16,-13.67,2.353,0.195,3.439,1.16,262.64,-20.12,16.258,1.323,46.863,-24.92,163.64,-65.84,-13.788,335.691,-15.307,35.757,400.657,46.064
0609-1-01-874,Doppelsalto C,5.236,-0.437,49.675,22.94,316.46,-35.39,1.288,-0.39,6.963,-0.22,218.62,-8.94,-0.249,-1.84,-5.826,9.73,67.4,-36.21,-7.881,-1.866,-19.114,22.19,61.38,16.25,-23.454,-1.045,-16.339,16.55,252.5,-35.72,-36.973,-1.236,-16.637,-26.38,632.55,-48.97,-50.67,-0.863,-12.827,-12.21,757.02,-18.17,-51.923,-0.692,-17.473,-23.21,736.98,-24.01,-51.79,-1.87,-20.257,-8.25,800.66,-17.87,-48.152,-2.027,-26.976,-12.46,858.59,-24.29,-44.097,2.437,-32.011,33.22,835.45,51.59,-30.642,-0.105,-19.735,76.26,654.2,-3.57,-20.594,-1.055,-15.314,90.05,494.29,-31.69,-9.499,1.137,-7.783,60.63,321.84,-38.83,-5.691,-0.306,-8.056,23.22,224.23,-15.68,-5.521,-0.354,-10.058,18.07,198.77,-25.73,-4.965,-1.28,-9.886,11.14,186.3,-57.48,-8.079,0.801,-10.255,6.85,277.2,-22.46,-8.35,-0.322,-4.734,26.81,332.75,25.38,11.469,-0.134,41.573,5.06,269.59,-42.72,27.865,705.255,-33.501,47.428,705.255,54.806
0115-JANEIKE-01-19,Salto B,12.83,-2.097,39.925,7.62,208.71,-29.83,-5.347,1.933,-0.029,8.55,19.6,16.72,-3.828,-2.639,-4.2,-13.28,-85.06,-8.47,-5.58,0.579,-3.642,3.16,-105.63,-13.25,0.771,-1.308,0.248,8.12,15.31,-45.47,3.047,-0.541,-9.647,-28.85,318.67,-70.04,-14.901,1.349,-13.064,-31.63,564.96,-18.82,-17.423,1.233,-9.488,17.23,541.8,14.42,-17.268,-0.294,-11.219,66.87,510.86,30.82,-14.275,0.489,-3.968,77.98,405.22,1.24,-6.755,0.823,-2.586,66.76,323.43,-22.89,-4.368,0.583,-1.018,43.28,235.16,-20.06,-1.248,0.9,-1.506,36.01,137.22,-2.92,-1.389,0.457,-1.563,42.04,95.46,1.9,-0.267,-0.99,-3.312,28.5,100.51,-9.85,-1.811,-0.517,-4.366,37.73,98.55,-30.46,-2.769,0.234,-2.426,32.81,85.37,-23.86,-4.596,1.187,-2.253,-0.22,61.72,-3.46,-2.184,-0.313,5.441,-1.97,83.26,9.6,23.919,0.656,34.971,36.64,223.71,-1.45,41.355,350.961,-22.981,57.428,396.041,46.686
20190930-1153-FRANKFURT_1-01-108,Doppelsalto C,-1.827,-0.898,49.97,-8.18,300.38,11.49,0.328,-2.189,1.247,25.87,75.07,8.22,-4.577,-1.918,-12.491,8.06,-33.88,-0.26,-11.414,0.34,-14.47,16.53,59.53,-13.79,-22.167,1.675,-14.034,45.8,385.57,26.68,-36.365,3.53,-10.236,62.84,624.39,1.56,-34.158,5.238,-15.41,29.12,634.64,14.07,-41.246,3.039,-18.217,14.93,646.82,29.44,-44.035,3.058,-19.557,12.9,660.96,61.65,-46.92,3.418,-21.099,25.78,687.95,78.12,-42.023,3.469,-21.478,36.22,737.78,74.39,-38.485,1.475,-30.456,87.35,851.57,29.31,-27.13,0.857,-24.79,28.63,659.51,-1.95,-26.987,1.65,-6.022,20.8,448.1,-5.93,-6.359,-2.458,-4.855,11.14,201.97,-18.81,-2.207,-0.484,-7.446,-5.25,120.98,8.94,-3.348,-0.514,-9.916,-14.2,88.09,19.26,-6.319,-0.892,-7.655,5.8,147.92,4.34,-4.234,3.15,-1.271,1.13,253.86,27.22,11.8,-3.524,46.701,35.66,267.07,-2.4,38.208,710.705,32.403,45.969,716.612,59.848
20190930-1616-FRANKFURT_1-01-295,Barani A,3.921,4.568,61.783,-6.83,-116.18,79.63,-6.816,-1.498,-6.146,-43.8,-323.29,120.34,1.015,1.623,-3.228,-93.25,-166.23,109.39,-5.809,1.072,-5.16,-57.76,-72.13,67.72,-2.206,1.053,-5.369,-76.99,-73.22,66.99,-2.455,1.037,-6.92,-128.16,-144.51,92.5,-1.239,1.175,-8.614,-169.83,-146.49,131.37,0.369,1.376,-8.976,-191.07,-128.83,127.95,-0.388,-0.046,-9.178,-195.28,-74.09,142.17,-0.294,-1.509,-8.799,-193.14,-19.96,172.22,-0.574,-2.618,-8.266,-173.41,47.42,192.3,-0.138,-3.035,-7.666,-149.48,101.16,182.97,-1.355,-2.624,-7.279,-117.18,130.32,148.14,-2.217,-2.216,-7.043,-85.17,140.78,116.68,-3.262,-2.284,-6.625,-61.91,162.2,77.01,-4.094,-2.148,-6.683,-42.63,157.58,33.77,-6.304,-0.752,-5.327,-42.53,162.71,38.82,-7.188,-1.045,-3.565,-29.3,180.38,43.65,1.407,-2.312,4.258,-13.43,226.31,5.76,5.841,1.345,32.38,11.29,327.17,-13.64,-159.411,42.333,161.85,167.054,261.218,175.412
20190930-1247-FRANKFURT_2-01-110,Barani C,6.76,4.34,58.076,-19.27,-98.73,28.0,-6.456,-2.485,-5.208,-76.99,-284.22,94.58,-6.68,0.906,-0.02,-51.97,-327.12,12.28,-15.765,1.879,-2.469,-74.18,-398.37,15.13,-17.813,4.309,-9.768,-85.25,-479.33,44.64,-0.136,-0.171,-12.505,-97.38,-354.39,95.87,-2.566,1.244,-7.993,-96.12,-171.09,154.24,-1.976,2.433,-8.744,-66.39,-12.63,164.69,-4.814,7.024,-10.932,29.75,46.26,203.65,-1.767,-3.313,2.264,-66.47,30.34,87.97,0.524,-0.19,-6.163,-130.08,-4.57,118.2,-0.506,-1.35,-6.064,-141.77,13.72,145.32,-0.816,-2.476,-5.472,-119.47,44.94,162.5,-0.68,-2.222,-5.025,-94.15,72.32,154.99,-1.873,-2.481,-4.58,-64.12,94.24,135.38,-2.5,-2.403,-4.04,-53.37,110.07,120.3,-2.758,-2.042,-5.453,-50.76,125.45,102.76,-3.58,-2.048,-4.589,-62.92,119.84,75.18,7.647,-3.668,3.419,-38.78,192.55,7.54,7.886,-0.28,36.142,-24.69,309.03,-3.1,-121.132,-87.585,172.474,131.707,309.167,183.999
20191007-1159-FRANKFURT_1-01-61,Salto C,-5.04,-2.092,43.977,-22.08,293.66,-12.75,-3.187,3.438,-3.491,-5.59,262.1,20.46,2.351,-3.207,0.695,9.2,96.54,22.58,-0.44,-0.23,-10.139,4.22,73.95,-15.14,-2.142,-0.113,-8.078,3.6,149.07,4.2,-3.469,-1.014,-7.756,-9.71,208.86,7.94,-4.516,0.264,-8.035,5.46,260.98,47.51,-5.666,-0.708,-7.248,19.61,274.81,33.23,-5.665,-0.124,-7.051,14.43,281.5,19.05,-4.581,-0.131,-6.663,29.66,265.82,13.57,-4.387,-0.194,-5.755,29.09,240.46,-4.77,-4.874,-0.112,-6.589,26.34,212.64,-10.1,-5.342,0.171,-5.171,15.72,178.81,-1.35,-5.576,-0.029,-4.286,23.96,181.37,14.78,-5.964,-1.314,-2.764,23.69,184.77,11.47,-4.745,-0.345,-1.866,15.27,200.03,10.27,-4.439,-0.484,-3.013,32.02,235.02,4.24,-3.079,-0.758,-1.222,26.65,261.27,-15.92,-1.864,-0.822,0.207,15.82,321.58,-39.28,5.791,3.126,51.021,7.64,178.98,-46.29,19.417,356.236,6.7,31.787,356.236,34.264
20191007-1150-FRANKFURT_2-01-222,Fliffis B,4.45,6.517,51.754,-34.28,-506.99,94.93,-35.862,1.833,-10.963,-126.25,-624.04,69.95,-38.04,7.054,-18.956,-113.61,-728.4,58.59,-37.539,3.76,-16.018,-161.4,-739.35,44.62,-38.63,6.403,-1.306,-129.03,-655.92,-2.16,-43.098,4.685,-5.482,-90.6,-634.16,-18.28,-42.719,3.003,-5.208,-62.47,-648.33,-3.21,-43.076,2.376,-5.878,-30.09,-655.14,-1.08,-40.715,2.809,-7.138,-22.8,-630.69,47.05,-28.763,4.491,-10.88,-56.58,-493.19,133.94,-16.939,4.242,-8.408,-37.66,-298.13,226.65,-11.421,8.873,-12.53,-11.11,-97.12,365.08,-13.089,18.554,-15.333,78.82,-131.28,536.18,-11.856,-0.661,-15.828,76.05,163.5,518.22,-12.533,-5.286,-16.842,32.83,196.54,349.21,-13.332,-5.112,-14.106,-9.18,211.17,116.18,-14.876,1.262,-10.114,-69.57,317.09,80.66,-16.658,-1.006,-3.496,58.73,329.58,157.41,-9.212,-0.761,5.627,122.64,382.99,34.05,11.172,0.031,45.175,107.45,396.31,52.88,-35.926,-393.47,216.47,116.939,718.088,239.527
0609-1-01-846,Doppelsalto C,1.451,-0.281,49.038,21.43,303.36,-49.03,2.878,2.473,6.725,7.27,204.61,-22.39,-0.232,-2.342,-4.817,-22.65,61.18,-41.47,-9.242,0.62,-21.348,20.3,38.82,41.1,-19.175,-2.048,-15.335,6.67,240.45,-7.83,-32.156,-1.984,-18.466,-0.67,639.9,-54.14,-48.576,-2.578,-14.588,-35.3,753.09,-25.28,-49.351,-2.453,-18.691,-28.82,745.6,-35.46,-50.342,-3.608,-21.84,-24.41,787.92,-31.69,-51.442,-5.1,-26.845,-27.76,835.8,-74.71,-45.375,-3.457,-31.502,-11.67,852.68,-30.07,-39.567,-2.037,-31.134,4.99,770.97,-41.89,-28.66,-0.384,-18.605,41.02,632.02,-15.32,-16.731,-0.976,-15.21,56.03,448.75,-31.35,-9.309,-1.167,-8.961,25.81,322.6,-49.82,-6.246,-0.197,-7.329,25.15,217.24,-36.78,-7.195,-0.635,-8.201,-1.15,159.12,-33.82,-9.352,0.975,-5.768,-7.44,162.87,5.17,-2.568,-1.718,2.08,-8.86,247.34,2.1,13.074,0.568,43.179,-2.1,302.03,-5.83,4.232,708.856,-47.084,37.744,708.858,61.45
0609-4-01-135,Schraubensalto C,6.083,3.417,47.812,51.91,282.43,108.74,-1.368,0.381,3.68,84.87,251.45,127.15,-1.199,2.923,-2.831,87.99,130.79,136.54,-2.733,0.157,-3.898,125.08,111.0,222.96,-8.181,3.579,0.183,249.52,80.93,352.35,-13.842,-0.671,7.499,321.74,-75.69,479.37,-14.178,-4.512,0.281,229.29,-177.22,539.66,-14.122,-5.377,-6.909,71.39,-176.2,526.21,-11.726,-4.817,-11.033,-44.45,-76.98,488.77,-8.958,-5.199,-9.493,-96.76,48.03,403.0,-6.231,-4.502,-6.587,-102.74,123.4,318.6,-3.867,-2.47,-5.467,-73.63,151.43,245.19,-3.194,-0.973,-5.507,-25.97,160.08,191.89,-3.341,-0.794,-5.303,-1.3,161.4,135.27,-3.998,-1.066,-5.692,-2.12,164.17,82.03,-4.923,-0.412,-4.744,-11.59,180.35,41.72,-5.497,0.368,-2.963,8.41,166.45,46.42,-5.546,-0.319,-1.372,32.14,180.15,60.91,-3.509,0.13,1.464,55.94,219.87,67.75,11.716,0.34,45.462,40.63,184.27,0.36,94.112,192.361,413.118,160.01,287.877,420.54
0609-1-01-532,Salto C,5.545,2.952,50.897,19.74,172.57,-33.99,1.232,0.455,2.448,3.9,52.0,-6.77,-3.362,-0.908,-5.059,15.82,-96.18,-14.41,-7.128,-1.25,-10.886,1.53,-46.92,-13.72,1.72,-1.095,-10.458,-31.51,353.91,-22.06,-10.961,-0.207,-15.204,6.91,635.1,2.0,-17.863,1.67,-15.323,20.78,540.7,3.14,-15.95,1.064,-11.258,39.07,460.56,-8.13,-7.16,0.881,2.762,38.16,334.96,-4.42,-0.865,-1.344,-2.666,31.91,227.58,-21.81,0.203,-0.585,-1.969,20.22,163.97,-29.19,-0.653,-0.235,-1.611,18.52,134.8,-24.13,-0.901,-0.728,-2.209,13.6,111.28,-9.17,-0.154,-0.71,-2.535,9.51,88.78,-15.4,-0.543,0.07,-2.673,6.81,70.36,-15.87,-0.315,-1.291,-4.505,-6.55,58.89,-22.98,-1.255,-0.22,-4.458,-16.06,66.7,-1.1,-5.548,1.215,-3.304,-27.76,50.98,19.21,2.426,-1.152,4.263,-1.28,139.7,14.85,10.803,-0.677,34.414,11.3,350.87,-11.93,19.475,362.425,-23.01,40.55,391.567,41.18
20191008-1207-FRANKFURT_2-01-252,Salto B,2.256,6.274,47.771,54.69,170.44,-51.94,-0.316,-1.939,-4.098,0.02,33.54,-17.3,-5.999,0.31,2.213,-3.32,12.89,1.71,-9.057,-3.55,-8.658,-4.08,-238.18,21.49,-8.05,-0.073,-4.855,-11.88,-86.89,-1.39,7.559,-1.395,-2.284,-12.37,112.16,-9.77,2.253,-0.624,-16.635,-26.84,448.46,12.7,-12.808,1.416,-20.401,27.07,613.38,13.44,-25.672,-0.261,-24.374,69.39,617.67,-4.35,-31.423,1.378,-11.23,66.16,616.27,-41.48,-8.633,0.913,7.411,57.17,341.53,-21.88,-2.096,-0.431,-0.11,17.53,163.3,-25.63,-0.272,-1.494,-5.172,12.24,106.13,-5.14,-0.568,-0.733,-3.627,11.25,88.99,-11.05,-1.809,0.537,-4.6,3.08,93.95,-11.61,-1.188,-0.908,-4.077,11.65,75.23,28.43,-3.506,-1.334,-4.586,15.29,96.72,5.98,-4.75,-1.822,-2.479,39.88,165.94,-0.66,-0.225,-0.229,4.292,48.05,247.36,-10.55,12.759,1.743,37.272,68.7,294.21,-77.76,36.975,339.451,-19.752,50.638,399.314,45.593
0609-4-01-180,Schraubensalto C,3.516,0.32,52.711,40.47,253.62,88.65,0.032,2.279,5.586,76.3,208.39,140.5,-1.481,-0.578,-3.959,98.4,103.19,121.82,-2.61,0.823,-2.874,121.37,107.18,171.9,-4.762,3.055,-1.246,200.7,92.34,259.67,-8.58,2.425,3.72,274.32,8.54,376.75,-10.192,-3.451,2.422,246.88,-129.77,419.64,-13.41,-3.123,-1.938,143.18,-185.92,485.01,-11.798,-3.669,-7.813,2.12,-145.71,491.56,-9.348,-3.299,-9.729,-75.31,-46.21,445.28,-7.579,-3.998,-9.148,-77.45,64.92,379.23,-4.71,-4.43,-7.38,-79.13,172.8,271.0,-4.266,-1.336,-6.553,-98.88,195.49,197.53,-4.371,-1.397,-5.699,-65.98,182.93,170.28,-4.297,-0.637,-4.485,-45.96,167.47,128.67,-3.886,-0.987,-4.466,-6.96,139.88,93.09,-4.804,-0.895,-4.564,23.54,133.32,57.05,-6.424,-1.014,-3.584,40.3,149.56,20.96,-2.024,0.309,1.519,34.91,182.61,2.06,14.567,0.015,39.88,14.27,255.06,3.78,79.546,182.563,390.424,165.482,279.535,394.299
0609-1-01-262,Von Bauch in Stand,51.576,4.386,26.108,4.39,-64.18,13.75,5.754,1.869,-3.536,-4.83,-41.33,57.13,-3.356,-3.732,0.38,9.8,21.15,-31.17,-1.235,0.212,-1.256,27.34,31.06,32.77,0.288,-0.988,-1.368,11.9,25.62,6.1,-0.969,0.23,0.365,0.08,19.13,-12.51,-0.662,-0.188,-0.249,10.23,19.88,-27.31,-0.507,0.157,0.148,6.7,19.42,-0.37,0.369,-0.488,-0.058,12.61,13.68,-15.6,0.762,-0.828,0.575,17.64,14.58,-39.81,0.269,0.679,0.017,20.39,10.2,-17.15,-0.115,0.153,-0.453,4.62,0.88,16.16,0.151,0.029,-0.386,-8.7,-6.68,20.38,-0.071,-0.229,-0.652,-11.19,15.05,24.36,0.071,-0.66,-1.155,-8.79,11.99,1.62,0.433,-0.653,-0.61,-5.27,11.26,-5.13,-0.152,-0.551,-0.853,6.42,-7.13,16.57,-3.577,-0.241,-2.554,-4.29,-22.12,45.57,4.495,-0.051,6.48,-14.61,81.12,25.31,21.841,-0.358,31.803,28.36,218.25,0.35,10.028,37.995,7.436,24.934,68.638,50.28
20191008-1207-FRANKFURT_2-01-229,Salto A,-6.587,6.649,44.853,16.87,284.95,-4.67,-4.113,0.227,0.051,41.59,220.53,-22.19,1.191,-3.192,-1.147,-1.89,128.35,2.74,3.695,-1.618,-7.483,-8.9,33.51,-0.35,0.049,-0.827,-7.826,-0.25,111.88,-24.53,-2.278,-0.946,-9.017,5.33,183.59,-15.9,-3.209,-0.818,-7.408,21.44,228.44,-8.98,-3.456,-0.984,-6.602,20.72,228.48,-22.37,-3.063,-0.634,-7.777,19.93,227.61,-20.04,-3.366,-1.168,-5.677,-0.36,211.42,-18.0,-3.329,-1.753,-6.477,13.18,220.78,-36.75,-3.277,-0.591,-6.134,-2.15,206.52,-38.28,-3.638,-1.591,-5.912,5.5,199.5,-23.18,-3.4,-1.017,-6.273,14.12,204.03,-10.14,-4.404,-1.162,-6.794,2.92,190.51,-7.81,-5.177,-0.944,-6.323,5.8,179.05,-16.36,-5.537,-1.828,-5.866,10.23,181.57,-47.93,-7.222,-2.059,-2.772,10.55,227.16,11.97,-3.689,-0.173,1.933,15.62,315.21,-16.33,-0.112,1.535,38.813,17.57,407.97,-82.85,17.961,357.836,-32.936,25.104,357.938,45.801
20191008-1157-FRANKFURT_1-01-319,Salto B,-4.585,-2.955,48.191,-39.57,270.71,6.96,1.003,-0.125,2.274,-3.17,112.94,17.64,-2.984,-0.729,4.144,37.78,26.54,-10.48,-10.435,0.318,-12.28,27.31,-167.2,33.89,-12.034,-0.942,-12.712,23.41,-116.02,34.97,6.396,-1.354,2.319,21.14,90.46,-39.16,9.259,-1.156,-9.985,-0.4,408.84,-39.46,-2.5,-1.676,-20.742,14.75,536.27,-10.81,-16.668,-0.487,-19.895,25.27,477.89,-40.94,-21.974,-1.459,-16.5,1.3,485.72,-55.77,-8.861,-0.987,0.755,-8.38,443.26,-98.89,-4.464,0.06,-2.108,-15.64,264.53,-23.63,-2.647,-0.506,-1.382,3.16,157.25,8.99,-2.039,-1.469,-3.696,-7.03,93.59,-1.75,-2.691,-0.847,-4.581,-14.35,84.84,-8.74,-3.199,-1.903,-4.736,-31.86,118.66,-17.44,-3.006,-1.26,-2.662,-39.59,154.37,-47.3,-4.555,-0.06,-0.601,-38.68,160.12,-6.8,-0.098,0.649,4.339,-31.48,242.38,-26.72,13.391,2.713,40.476,-60.21,224.2,49.87,-11.152,331.085,-22.577,42.879,388.562,59.486
20191001-1148-FRANKFURT_1-01-123,41°,15.342,-1.705,58.441,8.71,-159.59,-18.78,-17.928,0.178,6.699,43.8,-408.2,34.74,-14.445,-1.711,-11.015,37.59,-475.69,48.68,-12.225,-1.395,-5.56,25.89,-435.28,89.87,-4.992,0.608,-10.813,-25.93,-343.21,117.87,-5.929,2.644,-8.866,-79.11,-178.34,184.77,-7.234,4.057,-11.996,-81.44,-74.79,299.31,-4.697,4.739,-14.152,-66.78,-40.55,346.86,-2.529,-4.775,-4.102,-87.4,-70.49,276.7,-4.318,-0.392,-6.511,-57.78,15.5,301.16,-4.689,-3.343,-5.682,-9.24,82.58,310.52,-4.015,-4.18,-4.636,-0.59,125.31,283.2,-2.904,-5.061,-4.241,8.94,144.32,180.04,-2.793,-3.586,-4.419,17.78,148.28,48.44,-4.22,-1.383,-4.493,-1.75,161.92,-11.9,-4.86,-1.036,-4.825,-13.69,205.94,-12.92,-5.453,-0.105,-2.026,-20.6,244.07,-20.13,-4.552,-0.683,0.509,4.29,276.7,14.84,-4.301,-1.557,3.551,31.95,332.45,22.52,7.166,0.619,44.03,19.42,260.35,-85.68,-19.196,-10.222,176.879,51.524,334.908,210.802
0609-1-01-751,Doppelsalto C,6.936,0.418,49.693,27.36,292.99,-31.08,1.939,-1.944,2.737,-13.2,129.32,-8.57,-3.581,-0.32,-8.962,-4.26,30.16,-58.6,-8.192,-0.365,-18.547,-5.89,101.28,8.62,-20.801,-1.974,-15.073,-30.28,349.08,15.59,-41.401,-0.174,-15.299,-50.35,696.53,21.21,-45.694,-1.603,-10.9,2.36,721.41,29.06,-46.259,-1.297,-16.088,-0.04,782.45,1.14,-46.682,-0.952,-22.515,0.32,817.26,-17.05,-44.468,-0.807,-25.45,-5.35,817.43,-20.82,-35.031,-1.3,-32.065,52.73,825.19,-6.84,-33.269,2.539,-24.024,73.99,609.17,-15.65,-13.385,0.302,-15.027,43.15,441.54,-15.19,-9.872,1.134,-11.249,46.0,335.34,-22.23,-7.844,-1.015,-4.508,37.4,241.76,-13.45,-4.703,0.96,-6.828,40.1,183.38,-31.27,-5.287,-0.066,-6.961,24.98,189.3,-23.7,-3.405,-0.027,-8.379,23.33,203.68,-21.16,-0.367,-0.74,-7.455,7.87,221.48,-20.55,17.794,1.615,34.734,-20.22,256.3,-14.32,24.661,705.004,-17.497,48.28,706.46,47.173
20191001-1202-FRANKFURT_2-01-143,Salto A,-14.731,-2.525,51.454,16.51,-359.18,-13.75,4.95,-1.26,7.333,4.02,-318.72,64.42,5.16,0.633,0.736,-26.65,-185.75,-72.28,-5.098,-3.376,-4.256,-6.18,-91.03,1.75,-2.118,0.091,-12.261,-16.96,-116.73,10.38,3.504,0.141,-8.612,-6.19,-212.94,-27.66,4.652,0.838,-8.154,-5.66,-235.44,-62.08,3.527,-0.323,-7.586,-5.37,-265.39,-34.93,3.295,-0.102,-7.464,-0.66,-249.44,-10.29,4.222,-0.271,-7.233,1.07,-234.76,11.85,4.379,0.63,-7.464,9.77,-232.06,10.6,4.477,-0.846,-7.197,13.56,-215.05,12.35,5.199,0.045,-6.821,-2.16,-192.74,24.32,5.386,0.009,-6.738,-22.1,-184.94,-11.86,5.924,-1.291,-6.895,-32.33,-190.18,-23.46,6.989,-1.614,-7.003,-26.59,-204.26,-23.99,9.812,-1.368,-5.607,-30.44,-223.08,-2.06,8.661,-0.468,-1.281,-38.22,-249.35,-0.37,2.157,-0.971,3.411,-31.54,-278.58,-23.35,-11.289,-2.422,32.595,-23.29,-324.03,-74.27,-18.375,-360.032,-27.634,30.502,364.109,60.014
0609-1-01-245,Von Bauch in Stand,54.243,4.354,34.055,8.44,-83.53,41.0,5.714,0.008,-5.633,-8.15,-85.82,6.09,-1.667,0.28,-1.289,-9.44,-21.93,-43.12,1.528,1.182,-2.762,3.02,24.63,27.74,-0.46,-0.971,1.564,-2.45,42.49,-17.43,-0.18,-0.445,0.007,0.14,5.96,-38.65,0.23,0.774,0.059,7.71,14.34,-17.65,-0.386,0.393,-0.02,10.13,28.71,11.9,-0.393,-0.867,-0.325,-4.61,24.03,18.41,-0.232,-0.53,-0.229,-18.13,27.59,23.62,-0.231,0.109,-0.116,-4.36,14.55,6.04,0.419,-0.28,-0.947,-0.91,3.81,-3.32,-0.061,-0.353,-0.502,2.48,7.69,-4.86,0.396,-0.181,-0.561,3.4,7.99,0.44,0.724,-0.259,-1.12,-0.19,25.72,-7.38,0.565,0.465,-1.243,2.39,32.36,-1.71,-0.832,0.027,-2.008,15.43,18.57,0.82,-4.498,-0.453,-0.75,-10.85,17.67,14.78,4.178,-1.459,8.242,-7.91,37.91,38.96,21.238,-1.248,30.973,19.97,203.91,22.72,1.603,36.056,9.203,18.852,72.621,35.786
0609-1-01-106,Von Bauch in Stand,50.762,-5.5,31.557,-6.58,28.11,-10.66,12.222,1.872,2.413,36.79,-65.53,-48.57,-8.513,-1.66,-1.461,19.9,-32.21,-32.54,2.556,0.165,-1.78,23.1,21.78,26.76,-1.11,0.462,-0.843,17.23,28.9,16.03,0.144,-0.522,-0.238,6.82,30.0,17.82,0.058,-0.858,-0.037,2.82,21.24,3.52,-0.174,0.011,-0.409,4.13,10.66,7.35,-0.38,-0.309,-0.126,-3.97,5.31,-0.46,-0.256,-0.187,-0.043,-2.06,-11.91,-5.59,-0.393,-0.687,-1.036,-7.72,-20.98,-9.59,-0.167,0.073,-0.887,-19.72,-0.63,-15.9,0.214,0.145,-0.568,-7.45,10.51,-15.78,0.4,0.013,-0.374,1.63,19.61,-5.0,0.874,-0.362,-0.161,-6.94,39.96,-5.83,0.813,0.054,-0.769,-18.63,51.24,32.3,-0.752,-0.215,-1.652,-6.52,34.11,58.75,-4.974,1.575,0.067,-10.23,18.59,32.55,3.79,-3.318,7.132,-3.37,54.11,-38.26,18.62,1.367,31.477,4.23,201.8,24.84,2.617,43.4,3.327,22.31,73.534,46.275
0609-1-01-428,Doppelsalto B,-0.952,2.884,43.374,4.88,399.71,-30.74,-1.472,2.028,-3.21,20.45,163.31,-42.11,-4.251,0.499,0.499,-6.69,3.24,-27.82,-8.25,-2.481,-18.037,3.73,-87.72,12.6,-12.062,-0.596,-5.474,-3.46,128.55,-26.76,-24.992,-0.895,-4.742,-21.12,536.33,-13.42,-36.326,-2.027,-0.007,-46.57,718.11,-38.26,-35.731,-2.735,-3.486,-54.25,699.62,-18.8,-31.529,-2.228,-13.482,-55.1,770.14,-16.21,-31.752,-3.691,-37.121,-16.35,903.54,-11.3,-36.809,1.51,-33.871,35.04,795.55,24.84,-28.008,-1.229,-22.46,63.66,690.31,-21.33,-11.473,0.797,-9.515,98.21,557.55,-10.0,-3.52,-0.081,-6.093,58.7,314.49,-26.71,0.338,-0.455,-11.335,35.57,202.97,2.15,-1.358,-0.671,-11.109,25.73,152.03,-23.82,-3.721,-1.302,-12.13,16.41,138.13,-11.38,-8.817,0.45,-8.575,11.04,159.56,-21.97,-6.121,0.867,-1.45,21.68,237.13,-11.45,10.56,0.773,40.335,53.16,335.98,-24.13,22.151,707.737,-27.477,67.038,734.811,54.331
0115-JANEIKE-01-139,Fliffis- Rudi B,11.235,-4.899,50.68,-150.32,-312.09,-86.01,-36.147,12.951,-7.744,-95.25,-665.8,-35.46,-43.455,6.168,-11.103,-133.64,-747.18,76.71,-46.087,13.596,-14.113,-171.27,-801.59,145.42,-53.35,12.723,-8.237,-237.11,-661.5,90.85,-49.634,15.778,-13.726,-310.18,-713.64,-4.76,-28.109,6.752,-13.432,-213.84,-648.37,-127.83,-21.513,-4.576,-0.411,-126.01,-279.46,-258.64,-30.847,-18.781,-5.532,-202.88,-180.67,-619.53,-40.039,-16.833,-4.977,-260.0,-113.67,-934.53,-43.605,-5.59,0.863,-375.09,-0.88,-999.03,-36.462,7.271,18.184,-611.9,-151.6,-858.21,-37.578,10.526,-5.437,-360.54,-440.42,-869.88,-33.891,6.186,-25.025,26.11,-338.2,-820.18,-16.265,11.714,-25.914,227.31,19.07,-625.01,-4.175,5.572,-19.985,194.93,130.32,-389.06,-12.626,-0.324,-20.739,84.74,165.5,-251.51,-11.884,2.432,-15.759,41.64,266.99,-150.18,-19.883,6.425,-11.517,96.6,438.15,15.77,-4.885,-3.019,42.45,157.36,499.08,-85.45,-192.781,-362.402,-544.371,336.95,610.946,606.237
